,AccX,AccY,AccZ,GyroX,GyroY,GyroZ,Class
0,0.0,0.0,0.0,0.059406646,-0.17470746,0.101938136,0
1,-1.6248639,-1.0824918,-0.20418262,-0.02855795,0.05131268,0.13553573,0
2,-0.5946599,-0.122409865,0.2205019,-0.019394971,-0.029321533,0.08788824,0
3,0.7384782,-0.22845554,0.66773224,0.069791354,-0.029932396,0.054901514,0
4,0.101741076,0.7775676,-0.066729546,0.030695979,-0.0036651916,0.054901514,0
5,0.15846956,0.34589112,0.3552742,0.021533,0.115453534,0.014584408,0
6,0.078171015,-0.34917977,0.27065182,0.03436117,-0.030543262,0.05062546,0
7,-0.66274977,-0.46277535,-0.09979725,0.00870483,-0.009773844,0.046960264,0
8,0.46731782,-0.23463994,0.13413906,-0.048716504,-0.02076942,-0.030008756,0
9,-0.17189527,-0.40889418,0.41465282,0.009315695,0.0580322,-0.019624045,0
10,0.8526788,-0.41677797,0.4910078,-0.0010690142,0.042760566,-0.072158456,0
11,0.30885077,0.23902233,1.5170336,-0.029168816,0.15943582,-0.07276932,0
12,-0.40297937,-0.040392295,-1.0480223,-0.01695151,0.004276057,-0.04589125,0
13,-0.6046126,0.84023064,-0.8447466,0.02031127,0.005497787,-0.07826711,0
14,0.16359544,0.47510707,0.006772995,0.0050396384,-0.013439035,-0.06116288,0
15,-0.25059032,1.7221956,0.529089,-0.0022907446,0.029932396,-0.0055741454,0
16,0.7984953,0.1821081,0.20606041,-0.011453724,0.017715093,-0.08559749,0
17,-0.29116774,1.694341,1.4759464,0.007483099,0.087964594,-0.08987355,0
18,1.1801066,1.6199347,1.0541077,-0.023060163,0.032375857,-0.013515393,0
19,-1.2662845,-1.4181135,0.4026966,-0.011453724,0.0018325958,-0.028176159,0
20,-1.9412715,-1.3333063,-0.80127716,0.008093964,0.0,-0.011682798,0
21,-0.16773546,-1.0927223,-0.4438877,-0.01572978,0.048258353,0.0017562376,0
22,0.099909425,-0.90456706,-0.58917904,0.024587326,-0.031154128,-0.015347989,0
23,-0.23394442,-0.092106625,-0.21144581,-0.00290161,-0.015271631,0.010308351,0
24,-0.74943143,-0.33966783,-0.7901592,-0.015118915,0.013439035,0.023747386,0
25,-0.48120236,0.726062,-0.46176815,0.012980887,-0.014660766,0.0011453723,0
26,-0.018947363,0.68598056,0.5985756,0.028252518,-0.047647487,-0.008628472,0
27,-0.34503925,-0.12613934,-0.11033535,-0.02367103,0.01282817,-0.0110719325,0
28,0.5063236,0.89916474,-0.48235893,-0.020005837,0.03359759,0.010919216,0
29,-0.7444526,0.30807012,0.13416195,-0.00290161,0.059864793,0.0041996986,0
30,-2.3109999,-0.00023590773,1.234169,0.013591751,-0.14538592,-0.04466952,0
31,-1.2354913,-1.1864295,-0.4508562,-0.00045814895,0.0580322,-0.017180584,0
32,-0.05797839,-1.2544351,-1.2268076,-0.02977968,0.015271631,0.031688634,0
33,0.73513544,-0.59420466,0.5606766,0.00992656,-0.021991149,-0.01656972,0
34,-0.18448567,-0.28631848,0.45686817,-0.01695151,-0.018936822,-0.009850202,0
35,0.21474361,-0.17878866,0.5616379,-0.01695151,0.032375857,-0.04466952,0
36,0.19085145,-0.18170041,0.5620079,0.00992656,-0.018325957,0.007254025,0
37,-0.26172924,-0.5900413,-0.06337738,-0.04260785,0.023823744,-0.0110719325,0
38,-0.250973,0.109036595,0.17395306,0.00015271631,-0.07941248,0.029245174,0
39,-0.3154993,-0.40621176,-0.6458931,-0.02611449,-0.0061086523,0.04024075,0
40,1.0180122,0.70333594,-0.9524183,0.031306844,-0.06414085,0.031077769,0
41,-0.97506404,0.13342544,-0.51490307,-0.0010690142,-0.025045475,0.058566704,0
42,-0.37907457,-0.45772478,-0.011478424,0.037415497,0.03970624,0.07811439,0
43,0.24483013,0.65835357,-0.44392014,0.004428773,0.042760566,0.05795584,0
44,0.45495677,0.4233096,0.17937946,-0.07192938,-0.036651913,0.075670935,0
45,-0.16050053,0.4032675,0.935833,0.03436117,0.03176499,0.097662084,0
46,-0.7214869,-0.5823275,-0.5584183,0.011759156,-0.01160644,0.117820635,0
47,-0.10930574,0.63884765,-0.6289568,0.05390886,-0.06169739,0.106214195,0
48,0.1320141,-0.30378756,0.08743,0.07162395,0.051923547,0.12270755,0
49,-0.104435205,-0.009786218,0.19088554,0.028252518,-0.025045475,0.07200574,0
50,-0.18531281,0.6822442,0.02031517,0.0355829,-0.05497787,0.06895141,0
51,1.0312804,0.72823286,0.1628828,-0.087201014,-0.02443461,0.065897085,0
52,0.024627209,0.4760384,-1.6079884,0.044135015,0.0,0.02069306,0
53,1.158198,0.22727384,-0.6456232,0.001985312,0.069027774,0.031688634,0
54,1.1000575,0.22532225,-0.049497604,0.0032070426,0.054367006,0.010308351,0
55,0.665429,0.49806526,-0.106206894,-0.013286319,-0.028099801,0.021303926,0
56,0.8107588,0.3941303,0.5273695,-0.022449298,0.02687807,-0.010461068,0
57,-0.6773871,-0.56613946,-0.8683405,0.029474247,0.055588737,-0.014737124,0
58,-0.7798283,0.45677698,-0.5473404,0.030085113,0.0580322,-0.04772385,0
59,-0.62190557,-0.4506393,0.37696838,0.082619525,0.37995818,0.11904237,0
60,0.70113504,-0.16873932,2.0005665,0.11133019,0.111177474,0.013362677,0
61,1.8915246,1.1473792,1.4740295,-0.0346666,0.032375857,-0.0012980887,0
62,-0.44840515,-0.0026172996,-0.41570568,0.030085113,-0.06841691,-0.06543894,0
63,-0.6348057,0.67214185,-0.2979393,0.024587326,0.00061086525,-0.0067958757,0
64,0.6373229,0.9423757,-0.43490982,0.063682705,0.15515977,0.034742963,0
65,-1.1450831,-1.1350858,0.052502632,0.016646078,-0.09285152,-0.036728274,0
66,-1.561934,1.0792023,0.28938866,-0.2759584,-0.321926,-0.0092393365,0
67,-2.3862872,-1.1911907,1.1060066,0.09483683,0.019547688,0.06650795,0
68,-2.8973424,-0.020120025,-0.67102814,0.06490443,-0.13744467,0.07994699,0
69,-0.84673524,1.1123292,0.09226227,-0.02733622,0.016493361,0.16119206,0
70,-0.9487786,-1.1211964,0.36146355,-0.050549097,-0.0036651916,0.15141822,0
71,-0.66064614,0.47948244,1.7438354,-0.12690726,-0.12461651,0.15569428,0
72,0.32185626,-0.004040621,0.43290806,0.034972034,0.047647487,0.15325081,0
73,-0.62467885,-0.8120796,-0.07954121,-0.02367103,-0.054367006,0.12820534,0
74,0.661506,0.0063890815,-0.5900564,0.023365596,-0.01038471,0.058566704,0
75,0.34187663,0.5163145,-0.15867233,-0.022449298,0.04520403,0.0048105638,0
76,-1.1381806,0.89366126,0.8679552,0.045356743,-0.14966199,-0.063606344,0
77,1.1962264,-0.36534023,-0.67862415,0.11071932,0.014049901,-0.06421721,0
78,0.9723377,0.17520386,-1.4484472,-0.032223143,0.07819075,-0.06543894,0
79,2.0955453,-0.03835237,-0.12156963,-0.019394971,0.06414085,-0.1259146,0
80,0.6891172,0.0041232705,-1.3480415,-0.060322944,-0.048258353,-0.10209085,0
81,-0.9347031,-0.4371791,-0.59119606,-0.110413894,-0.026267206,-0.11552989,0
82,0.10281992,0.45909715,-0.11830711,-0.022449298,0.043982297,-0.056886826,0
83,-0.0144354105,-0.950908,0.82091236,-0.08781188,-0.093462385,-0.033673946,0
84,0.32654715,0.32304913,0.5020542,-0.00290161,-0.106901415,-0.09659307,0
85,0.96308875,0.4298553,0.52382755,-0.032223143,0.099571034,-0.08498663,0
86,0.17647147,0.5752955,1.5496607,-0.012675454,0.11484267,-0.09292787,0
87,0.9191344,0.93255293,-0.29841137,0.039858956,0.07452556,-0.121638544,0
88,2.6182406,2.4308987,-0.82796764,0.20479257,0.1777618,-0.2224313,0
89,1.9347279,0.7842797,-1.5967312,-0.16050485,-0.16493362,-0.22670737,0
90,1.6863043,1.2241917,-0.587286,-0.057268616,-0.10934488,-0.24930938,0
91,2.5924811,0.79024184,-0.40652752,-0.011453724,-0.032375857,-0.22976169,0
92,1.4067512,0.5025584,-1.3592224,-0.018784106,-0.021380283,-0.14729488,0
93,0.8868482,0.51803625,0.11828709,-0.02367103,0.06963864,-0.056886826,0
94,-1.0272081,-0.055243492,-0.14257717,-0.14156802,0.06352998,0.061010167,0
95,-1.5332457,0.928036,-0.6522989,0.077121735,-0.17470746,0.03352123,0
96,-1.5276446,-0.38795257,-0.5631046,-0.027947085,0.032986723,0.08055785,0
97,0.5042579,0.22524488,0.1879034,-0.018784106,0.004886922,0.057344973,0
98,1.3128617,-0.6251019,-0.38088036,-0.013286319,-0.015882496,0.050014593,0
99,0.38992918,0.10109073,-0.35014343,0.038026363,0.02687807,0.02985604,0
100,0.08548367,-1.1993814,-0.7559643,0.14553864,0.14660765,0.06528623,0
101,-0.41264224,1.6265585,0.5976982,0.12293663,0.018325957,0.04085161,0
102,-0.48421,1.4568092,-1.1082525,0.10644327,0.03604105,0.077503525,0
103,-1.0362381,0.08818948,-0.9361582,0.08628472,-0.005497787,0.031077769,0
104,0.47458458,0.6829182,-0.771245,0.010537425,-0.08368854,0.0622319,0
105,-0.2566589,-0.72001874,0.73049927,0.012370021,0.03726278,0.058566704,0
106,-0.32550082,-0.71391904,-0.15477943,0.10522154,-0.02076942,0.074449204,0
107,-0.728944,-0.77842444,-1.2348099,-0.05971208,0.026267206,0.123929285,0
108,-0.58216274,-0.15954599,-0.18910027,0.023365596,0.022602014,0.09216429,0
109,1.2212067,-0.16466856,0.00062942505,-0.059101213,0.0018325958,0.097662084,0
110,0.15069354,0.25608444,0.029931068,0.16997325,-0.052534413,0.05795584,0
111,0.24779892,0.37465924,-0.24551773,0.03436117,0.05375614,0.08483391,0
112,-0.37758067,0.4206541,-0.37968922,0.04046982,0.002443461,0.026801713,0
113,0.25124454,-1.0838859,-0.08934784,0.019089539,-0.086132,-0.04100433,0
114,0.3612535,-0.3177319,0.797492,0.0032070426,-0.030543262,-0.03733914,0
115,0.390069,1.3255444,0.38725853,0.0917825,-0.004276057,-0.04955644,0
116,0.24759364,0.77460706,0.692894,-0.0053450707,0.11362094,-0.04466952,0
117,-0.044749975,-0.51509464,-0.94717216,-0.10430524,0.008552114,-0.07460192,0
118,0.38730168,0.006276071,2.904272,-0.072540246,0.015271631,-0.059941154,0
119,1.1234715,0.5328438,-0.19660187,-0.14828753,0.16493362,-0.10086913,0
120,0.119714975,0.83592296,-0.52494335,-0.107359566,0.086132,-0.053221636,0
121,0.05827284,-0.3320887,-0.4752264,-0.16966783,0.10140363,-0.10209085,0
122,0.6484823,-0.11160147,2.2954617,-0.041996986,0.007330383,-0.09292787,0
123,1.2564957,0.51979375,-0.19493008,0.054519724,-0.06963864,-0.117362484,0
124,0.88845897,0.16919601,-1.8939242,-0.08170322,0.12217305,-0.08743009,0
125,0.2569821,-0.1243099,-0.49212742,-0.008399397,0.027488936,-0.10331258,0
126,-1.5508068,-0.7700404,0.22594357,-0.11652254,-0.04520403,-0.099647395,0
127,0.53837967,-0.070819944,0.62034225,-0.025503624,0.005497787,-0.03428481,0
128,-2.2353997,-2.6225307,-1.3193178,-0.09941832,0.21319197,-0.008628472,0
129,0.34413934,0.25052288,1.1268444,0.06490443,-0.01282817,-0.01779145,0
130,0.6799526,-1.0601444,0.53286076,0.012980887,0.021991149,0.00786489,0
131,-0.49350238,-0.11575872,-0.28208447,0.006872234,0.008552114,0.014584408,0
132,0.18948174,-0.31755272,0.8786831,0.0062613687,0.034208454,0.050014593,0
133,0.3959098,0.10250321,-0.1692133,0.05757405,0.03359759,0.0023671028,0
134,-0.096042156,0.48772928,1.0719881,0.03191771,-0.054367006,-0.023289237,0
135,-2.1764052,-1.2252504,-1.2850323,-0.029168816,0.055588737,0.018860465,0
136,-0.46546447,0.22124556,0.040905952,0.02397646,-0.03970624,0.059788436,0
137,0.7124877,0.16797096,0.4198017,-0.01572978,-0.012217305,0.08055785,0
138,-0.32323945,0.11686492,0.6942129,-0.04444045,0.23640485,0.104992464,0
139,-1.7656263,-0.37063468,-0.81250286,-0.09392053,0.10567969,0.065897085,0
140,0.43888128,0.1629256,-0.43029308,0.13942999,-0.05131268,0.015195273,0
141,0.6038188,0.08533296,-1.1062756,0.11071932,-0.24556783,0.030466905,0
142,1.0584856,0.6238576,0.5060797,0.06918049,0.029321533,0.036575556,0
143,-2.5702531,0.123048544,-0.7402487,0.004428773,0.36041048,-0.00496328,0
144,-0.5883533,-0.9125505,0.21210575,0.06001751,-0.13316862,-0.031230485,0
145,0.07427657,-0.023941457,-2.0929408,0.09789115,0.06047566,0.0005345071,0
146,0.099351406,-0.3889095,-1.0395012,0.10094548,-0.0061086523,-0.020845776,0
147,-0.99984616,0.22399685,0.6214533,0.014813482,-0.15088372,-0.027565295,0
148,-0.34422362,-1.0760529,-0.19764423,-0.0053450707,0.052534413,-0.0019089539,0
149,0.621945,0.2177471,-1.1412296,-0.048716504,0.01282817,0.04757113,0
150,-0.15884256,-0.1278511,0.6959667,-0.0096211275,0.009773844,0.020082194,0
151,0.3085351,0.6690208,-0.93797684,-0.009010263,0.037873644,0.02069306,0
152,0.13886309,0.06452134,-0.8004379,-0.013286319,0.04337143,0.01947133,0
153,0.2125578,0.6613016,-0.030713081,0.029474247,-0.030543262,0.018860465,0
154,-1.1739001,0.18183313,-0.30236626,-0.0071776668,0.036651913,0.0041996986,0
155,0.16520143,0.08641583,-0.1563015,-0.037110064,-0.015882496,0.010919216,0
156,-0.74853444,-0.57277286,-0.30767536,0.00015271631,0.11911872,0.056123246,0
157,-2.00992,-0.19262809,2.090355,0.06490443,-0.087964594,0.015806139,0
158,-0.25980926,0.021986157,-0.6759405,0.069791354,0.044593163,0.04512767,0
159,-0.7795375,-0.8605159,0.26456738,-0.04016439,-0.18448131,0.05062546,0
160,0.072965264,-0.3128336,-0.99978065,0.059406646,0.021380283,0.094607756,0
161,-1.0269365,-0.109438896,0.23638153,0.051465396,-0.03481932,0.071394876,0
162,-1.2551696,-0.35059828,-0.9256029,0.03924809,-0.15943582,0.07322747,0
163,0.12499118,0.4009652,0.8791828,0.031306844,-0.05375614,0.08055785,0
164,0.07858431,0.1679191,-0.37619972,0.047800206,-0.015271631,0.078725256,0
165,-0.019195676,0.9062663,0.3053236,-0.0016798794,0.058643065,0.08239045,0
166,-0.954956,0.87926555,1.0859556,0.0050396384,-0.05131268,0.018860465,0
167,0.26113033,0.4742611,0.24414444,0.010537425,-0.004276057,-0.022678372,0
168,0.35154867,-0.63921416,1.028595,-0.01695151,-0.0067195175,-0.010461068,0
169,-0.63067853,-0.018778443,1.1798668,0.020922136,-0.06169739,-0.028176159,0
170,-0.030500889,0.30376703,-0.12136555,0.007483099,-0.007941248,-0.03611741,0
171,-1.289685,-0.115615636,-0.6661215,0.022143865,0.0012217305,-0.022678372,0
172,-0.30338907,-0.110931456,0.75951385,0.026419923,0.08735373,-0.07460192,0
173,0.609426,0.66215885,0.17702007,-0.026725354,0.0842994,-0.11797335,0
174,1.2453699,0.24906662,0.6554985,-0.022449298,0.002443461,-0.11552989,0
175,-0.56093645,-0.30215263,0.0718565,-0.013286319,0.014660766,-0.09292787,0
176,-0.3489778,-0.13491347,-0.4414673,-0.02367103,0.051923547,-0.04100433,0
177,-0.9998747,0.10331097,0.87223244,-0.012675454,-0.019547688,0.03718642,0
178,-0.37709296,-0.07718876,-1.2471294,0.0025961774,-0.03970624,0.025579982,0
179,0.1658454,1.0683217,0.50558186,-0.020005837,-0.030543262,0.0182496,0
180,-0.50528693,-0.502498,0.50565624,0.03680463,-0.007330383,0.018860465,0
181,0.54552734,0.3603191,0.1132288,0.058184914,0.04642576,0.05062546,0
182,0.56569004,0.19770347,0.19758415,-0.00290161,0.462425,0.0603993,0
183,-0.19473088,0.060111776,-0.48773098,0.02031127,-0.08124508,0.093386024,0
184,-0.89525217,0.8138418,1.3427591,-0.01572978,-0.06169739,0.11537717,0
185,-1.1076754,0.102330625,-1.8241887,0.059406646,0.03359759,0.0463494,0
186,-0.16928744,-0.64861035,-1.5360737,-0.023060163,0.05375614,0.097662084,0
187,-0.36941272,-1.0454613,-0.28684807,0.036193766,0.029321533,0.058566704,0
188,-0.18624103,0.15898281,-0.6796293,0.027030786,0.028099801,0.03596469,0
189,0.5912616,1.1605201,-0.3608141,-0.0016798794,-0.051923547,0.029245174,0
190,0.30055654,0.8744776,-0.088121414,0.069791354,-0.03176499,0.015195273,0
191,0.5082655,0.84723324,-0.53090954,-0.0065668016,0.14660765,0.05673411,0
192,0.46527594,0.9880246,0.1904707,0.020922136,-0.0842994,-0.025121834,0
193,1.6348356,0.8233796,2.6128063,-0.048716504,-0.059864793,0.0011453723,0
194,0.27278423,-0.86840117,-0.07423782,0.03924809,0.007330383,0.007254025,0
195,0.14330971,0.3106379,0.2801876,0.0759,-0.12522738,0.012751812,0
196,0.22151637,-0.1322175,0.4552679,-0.039553523,0.09773844,0.070173144,0
197,-0.87528354,-1.0349618,0.5895767,0.03191771,0.017104227,0.03352123,0
198,-0.52453035,-0.3676846,0.3343525,0.052687127,-0.016493361,0.027412578,0
199,-1.1108165,-0.2950815,-1.0536289,0.06612616,-0.013439035,0.04512767,0
200,0.11844677,0.29510713,0.58346844,0.02031127,0.06536258,0.083001316,0
201,-0.94268507,-0.82256925,-0.8420906,0.120493166,0.0012217305,-0.0037415496,0
202,0.94948334,-0.252551,-0.29472733,0.044745877,0.03848451,0.056123246,0
203,-0.82633543,-2.0553443,0.0899601,-0.016340645,-0.008552114,0.04757113,0
204,-0.44769895,-0.23048991,0.4830513,-0.05787948,0.05009095,0.0035888334,0
205,-0.5651398,0.64710504,0.51699543,0.00015271631,0.004276057,-0.023289237,0
206,0.024288774,-0.37834877,-0.60439396,0.03680463,0.02443461,-0.06421721,0
207,-0.8651426,-0.38633198,-0.55102444,0.010537425,0.004276057,0.017027868,0
208,0.6980934,0.26479465,-1.7547369,-0.009010263,0.0720821,-0.08987355,0
209,0.40509462,-0.8195543,-0.35784435,0.02397646,-0.10751228,-0.11980595,0
210,0.21581864,0.22475779,-1.1652632,-0.122020334,-0.29932398,-0.22059871,0
211,0.7551739,1.2963527,0.66586876,-0.0627664,0.19914207,-0.070936725,0
212,-0.21097851,1.525346,0.14922905,-0.035888333,-0.08979719,-0.091095276,0
213,-0.114616156,0.07744706,-1.0385275,0.041691553,-0.11911872,-0.036728274,0
214,0.3717258,0.83368415,1.327487,-0.04016439,0.05009095,-0.014126259,0
215,-1.2199274,-0.11093432,1.485364,0.022143865,0.009773844,0.034132097,0
216,-0.56600654,1.1734192,-0.20428085,0.018478673,-0.053145275,-0.0031306844,0
217,-0.49220324,0.49415994,0.85974884,-0.02367103,0.05375614,0.046960264,0
218,-0.4524958,0.18226802,-1.2338619,-0.0035124752,-0.040317107,-0.0129045285,0
219,-0.03872633,1.104155,0.856987,-0.0041233404,0.049480084,-0.0012980887,0
220,0.5362265,-0.55118215,-0.8278637,-0.01817324,-0.08002335,-0.09231701,0
221,1.5162001,-0.6167873,1.0262117,-0.14523321,-0.04642576,-0.17478381,0
222,1.1926036,-0.30191213,-1.8018489,0.08323039,-0.093462385,-0.0092393365,0
223,-0.111887455,-0.46296084,-1.6604362,-0.023060163,0.20219639,0.05673411,0
224,-0.7728926,-0.437751,1.5766926,-0.07803804,-0.059253927,0.049403727,0
225,-1.6802438,-0.9497519,-0.7764807,-0.020616703,-0.03359759,0.053679783,0
226,-0.43703926,-0.30933052,-0.13240242,-0.06887506,-0.044593163,0.017027868,0
227,0.025582075,0.39271176,-1.7587295,-0.04505131,0.12461651,0.037797287,0
228,-0.041906357,0.7844308,3.5297337,-0.053603426,0.18203785,0.022525655,0
229,-0.44848144,0.6266706,-1.01122,0.012370021,-0.051923547,-0.039171733,0
230,0.3257618,0.28647316,0.06993866,0.0025961774,0.1020145,-0.025732698,0
231,0.21991014,0.44876638,-0.41668797,-0.0010690142,-0.07269296,-0.017180584,0
232,-0.7502197,-0.25288218,-0.22727203,-0.07315111,0.07513642,-0.050778173,0
233,0.45788026,-0.13255823,0.4550438,0.09850202,-0.06047566,-0.14851661,0
234,-0.86898947,-0.39067304,-0.4247551,0.021533,-0.06658431,-0.10086913,0
235,-0.1644237,0.11209062,-0.5674658,0.033750303,-0.015271631,-0.072158456,0
236,0.12945437,-0.2682078,0.73834133,0.063682705,0.023823744,-0.06666067,0
237,0.8975003,0.10565305,0.37861252,-0.024892759,-0.005497787,-0.05749769,0
238,-0.11232734,0.08000988,0.900671,-0.024281893,0.002443461,-0.038560867,0
239,0.36923146,0.13370782,0.36629963,-0.069485925,-0.058643065,0.0023671028,0
240,-0.04753065,-0.90254694,0.44817734,0.024587326,0.045814894,-0.03611741,0
241,-1.434068,-0.23500597,-0.18689156,-0.012064588,-0.0036651916,0.014584408,0
242,-0.719424,-0.31265676,-0.8474846,0.04352415,-0.18570304,0.036575556,0
243,-0.02423501,0.7194964,0.18443394,0.046578474,0.023823744,0.037797287,0
244,-2.003489,-1.4315805,2.2115784,-0.038331795,0.013439035,0.026190847,0
245,0.59080505,-0.81345344,1.5862103,0.02275473,0.009162978,0.01947133,0
246,-0.38942766,-0.8579493,0.27922153,-0.0041233404,0.034208454,0.051236324,0
247,-1.1717485,-1.6960604,0.3665352,-0.03894266,-0.03176499,0.093386024,0
248,-0.93708,-0.89317477,0.15616226,0.03436117,0.07147124,0.17402023,0
249,-2.6852078,-0.235533,0.9222088,0.06001751,0.0018325958,0.14164437,0
250,-2.099313,-0.9967143,-0.11741924,0.020922136,0.08735373,0.20578523,0
251,-2.6120398,-0.025721729,-0.7405453,0.10094548,0.009162978,0.12454015,0
252,-0.7398677,1.3327417,0.316288,0.08445212,-0.02321288,0.11110111,0
253,-1.1883842,-1.438625,0.029187202,0.0917825,-0.12461651,0.070173144,0
254,-1.26089,-0.1453346,0.37160873,0.02275473,-0.020158553,0.04085161,0
255,0.3511001,0.10805577,0.96119785,0.023365596,0.02321288,-0.0031306844,0
256,-0.4742744,-1.3817658,-1.1478577,0.0050396384,0.022602014,0.041462477,0
257,0.26002562,2.7709599,2.0762053,-0.030390546,0.053145275,-0.022067508,0
258,0.43747294,-0.53117573,-2.804398,-0.020005837,-0.11056661,0.013362677,0
259,1.1599375,-0.07919885,-0.8431816,0.027641652,0.01282817,0.041462477,0
260,-0.0811069,-1.4759502,-1.6136904,0.024587326,0.004276057,0.034132097,0
261,-1.1152251,0.61241245,1.9047852,-0.06582073,0.017104227,0.04024075,0
262,0.06557977,-0.18764496,-1.1468163,0.04352415,0.08368854,0.053679783,0
263,-1.1231012,-0.59272027,-0.14233017,-0.035277467,-0.021380283,-0.0025198192,0
264,1.0234836,0.9024394,-0.17984295,0.0038179078,-0.027488936,0.0017562376,0
265,0.005556345,-0.07067929,0.57001305,-0.031001411,-0.01282817,0.02985604,0
266,0.0123307705,0.048851274,0.5468197,-0.022449298,-0.009162978,-0.0019089539,0
267,-0.07141042,0.2701403,0.5616617,0.018478673,0.02076942,0.0011453723,0
268,0.73912287,0.43837807,0.19689083,0.022143865,0.0018325958,0.02313652,0
269,0.12841725,-0.80596346,0.17331123,-0.015118915,-0.05009095,-0.01779145,0
270,-0.38435006,-0.7979759,-0.7013798,-0.015118915,0.026267206,0.027412578,0
271,0.56799436,-0.7635671,0.5392113,-0.0010690142,-0.0012217305,0.008475755,0
272,-0.30801678,0.29713914,-0.25716782,-0.031001411,0.08735373,0.0139735425,0
273,-0.07703292,-0.29111025,-0.104579926,0.008093964,0.16737708,0.0182496,0
274,-0.36783028,-0.111059666,0.5339279,-0.019394971,-0.05131268,-0.050167307,0
275,0.62327254,-0.26485637,0.58876324,-0.02367103,-0.03726278,-0.0031306844,0
276,0.073449254,-0.7440124,0.2540903,0.023365596,-0.045814894,-0.032452215,0
277,0.4740256,0.541974,0.82694054,0.027641652,0.20647246,0.01947133,0
278,-0.11017203,-0.6860788,1.26155,0.011148291,0.028710667,-0.028176159,0
279,0.30949104,0.32975072,0.5228138,-0.009010263,-0.004886922,-0.013515393,0
280,-1.0162668,-0.20013869,0.2120018,0.038026363,-0.018936822,-0.022678372,0
281,0.90842676,-0.35964292,1.4169226,-0.050549097,-0.070249505,-0.04772385,0
282,-0.099675655,-0.04836425,-0.19143581,-0.07620544,-0.059864793,0.007254025,0
283,-0.1801846,-0.3898878,-0.9060259,-0.087201014,-0.049480084,-0.0067958757,0
284,-1.9070683,-1.6033976,0.23925972,-0.16172658,-0.15149458,0.018860465,0
285,-0.510329,-0.7576237,1.0627623,-0.04138612,-0.032986723,0.017027868,0
286,-0.25521362,-0.012183666,-0.02837658,-0.04260785,-0.048258353,0.17707457,0
287,-0.25381076,0.79616594,-0.016641617,0.03191771,-0.030543262,0.07078401,0
288,-0.376352,-0.76224595,-0.05592251,-0.022449298,0.050701816,0.12148582,0
289,-0.9957027,-0.8332688,0.26573563,0.0056505036,0.026267206,0.123929285,0
290,-0.27757055,-1.2646041,1.341999,0.1339322,0.01282817,0.10865766,0
291,-0.29910886,0.5342967,0.036729813,0.08628472,0.005497787,0.14469871,0
292,0.34876406,0.3460778,-0.12648582,0.027030786,0.01282817,0.14469871,0
293,-0.6136386,0.20602992,-0.31660557,-0.015118915,-0.02687807,0.21800253,0
294,0.22911942,1.1469812,-0.032381058,-0.024281893,0.002443461,0.0322995,0
295,1.1726547,-0.108105354,-0.70246124,0.034972034,0.053145275,0.07383834,0
296,-0.3546877,-0.5180464,0.030934334,0.17180584,0.2742785,0.13675746,0
297,-0.3210932,-0.75217336,1.5790272,0.021533,0.0036651916,0.025579982,0
298,0.21408367,-0.5882675,0.10191727,0.00076358154,0.069027774,0.021303926,0
299,0.6286851,0.04788199,0.12103939,-0.0022907446,0.06352998,0.00786489,0
300,0.1085875,-0.61211646,0.68674374,-0.020005837,0.014049901,0.0035888334,0
301,0.5604267,-1.2272356,0.7907982,-0.009010263,-0.04886922,-0.023289237,0
302,-1.0127023,-0.47161663,0.9393177,-0.023060163,-0.034208454,0.03596469,0
303,-0.043752074,-0.022560418,0.20010757,-0.012064588,-0.04153884,0.029245174,0
304,-1.0208405,-0.3660627,0.53029346,-0.04138612,0.0012217305,0.0011453723,0
305,0.16000628,0.6783377,-0.42264652,0.06429356,0.051923547,-7.6358156e-05,0
306,-0.018686056,0.32031968,0.02953434,-0.01572978,0.06169739,0.028634308,0
307,0.12359834,0.401303,0.4672966,0.008093964,0.0,0.04879286,0
308,0.20924437,-0.30007708,-0.57656384,0.0038179078,-0.04153884,0.045738537,0
309,0.432822,0.4263416,0.56699276,-0.018784106,0.0012217305,-0.023289237,0
310,-0.22298932,-0.22828063,-0.0022096634,-0.0041233404,0.034208454,-0.027565295,0
311,-0.674546,-0.60552186,0.08272934,0.0355829,0.03726278,-0.036728274,0
312,0.98295546,0.31632358,-0.82794,0.02031127,0.009162978,-0.014737124,0
313,0.22900033,0.7271996,0.0050373077,0.02397646,0.021380283,0.005421429,0
314,-1.3153015,-0.94403034,-0.1368227,0.007483099,-0.01282817,0.007254025,0
315,-0.39384413,0.2904355,-0.575861,0.03863723,0.01038471,0.1184315,0
316,-0.42821503,-0.40514922,0.2510023,0.034972034,0.09773844,0.042073343,0
317,0.5629624,1.0313348,-0.34222698,-0.0627664,-0.034208454,0.00908662,0
318,-0.31487644,-0.22420272,0.998991,0.10277808,0.20952678,-0.036728274,0
319,0.076051235,-1.4867306,0.31640148,0.0355829,0.08674286,0.0048105638,0
320,-0.33166504,0.31223968,0.33514595,0.11133019,0.19181168,0.03596469,0
321,0.11739051,-0.10811675,-0.6554594,-0.07925977,-0.09162979,-0.031841353,0
322,0.40198743,-0.48926717,-0.2900381,0.05513059,-0.018325957,0.077503525,0
323,0.10857141,-0.013837535,-0.86671925,0.12904528,0.2406809,0.0035888334,0
324,0.20090139,-0.10922946,0.8869524,-0.09941832,-0.027488936,-0.019624045,0
325,0.789613,0.71779513,0.39988708,0.07651087,-0.02565634,-0.011682798,0
326,-0.83912826,0.30953357,0.07212162,0.013591751,0.026267206,0.017027868,0
327,-0.085796356,-0.73327476,0.6632147,-0.03894266,-0.059253927,-0.0055741454,0
328,-0.5636817,-1.1530536,1.352561,0.07284568,0.06169739,0.037797287,0
329,-0.674605,-0.3781833,1.0126963,-0.021227567,0.073303826,0.02069306,0
330,0.7489872,0.7775284,-0.6096058,-0.069485925,-0.03848451,0.04024075,0
331,-1.0490661,-0.8120072,-2.0410929,0.007483099,-0.025045475,0.03718642,0
332,-0.6071586,2.0007071,-0.43111706,0.061239243,-0.047036625,0.04757113,0
333,-0.6309858,-0.10072729,0.76296234,-0.011453724,-0.016493361,0.09644035,0
334,-0.23300362,-1.0755312,-0.061592102,-0.012064588,0.008552114,0.06650795,0
335,-0.038929224,-0.6663336,0.30048084,0.031306844,-0.03970624,0.04268421,0
336,0.14722526,0.69420284,-0.41985035,-0.00290161,-0.03726278,0.053679783,0
337,1.3341161,-0.1415723,1.4307556,-0.02367103,-0.007330383,0.0603993,0
338,0.5215554,0.13940394,0.5122814,0.004428773,0.03176499,0.061010167,0
339,-0.34894216,-0.3824355,-0.023623466,-0.020616703,-0.043982297,-0.039171733,0
340,0.15516281,0.4742343,0.49960518,0.059406646,0.023823744,-0.030008756,0
341,-0.4419073,0.3562544,0.006219864,0.0062613687,-0.01282817,-0.022067508,0
342,0.04711628,-0.22506526,-0.002866745,0.016646078,-0.014049901,-0.0006872234,0
343,-1.1028864,-0.11111134,0.38119888,-0.010842858,0.01160644,0.009697486,0
344,-0.11131048,0.3503166,-0.39005184,0.060628377,0.080634214,0.03901902,0
345,0.2196424,0.54232514,0.010965347,-0.0071776668,-0.03176499,0.022525655,0
346,-0.27052987,-0.44542545,0.22694683,-0.052381694,-0.0580322,0.02985604,0
347,-0.63782656,-0.27594423,-1.2295704,0.049021937,0.004276057,0.023747386,0
348,-0.094656944,-0.49301025,0.52759457,0.033750303,0.005497787,-7.6358156e-05,0
349,-0.3019601,-0.038541183,0.41344738,0.04718934,0.02443461,0.015806139,0
350,-0.02288413,0.58363044,-0.74947166,-0.04627304,-0.07574729,-0.0006872234,0
351,0.23692632,-0.276865,0.2469225,-0.076816306,0.0036651916,-0.019624045,0
352,0.3152976,0.75909173,-0.5795202,0.04230242,-0.014049901,0.030466905,0
353,-1.2082562,-0.8495319,1.6577206,0.024587326,0.0012217305,0.05673411,0
354,-0.1164335,-0.51976025,0.83994484,-0.04138612,0.017104227,0.083001316,0
355,0.36252725,-0.053932965,0.6794853,0.09911288,0.1459968,0.08544478,0
356,-0.20261514,0.7779546,-0.50951004,-0.0047342055,0.01282817,0.06528623,0
357,0.009883523,0.14232087,-1.1624146,0.02275473,0.0,-0.0031306844,0
358,0.3690449,-0.48629326,-0.5755768,-0.035888333,-0.07819075,0.04268421,0
359,-0.18870294,0.5075295,-0.8615732,0.05879578,-0.0030543262,-0.022678372,0
360,0.62333333,0.075092286,-1.1520367,0.100334615,0.11362094,-0.007406741,0
361,0.91260767,0.9850935,0.61280537,-0.03894266,-0.031154128,0.007254025,0
362,0.32245183,1.2059914,0.009819031,0.006872234,-0.021380283,-0.019013181,0
363,-1.1045842,-0.24214703,1.0593166,-0.024892759,-0.032375857,-0.0092393365,0
364,0.8107977,-0.51081455,-0.083945274,-0.04444045,-0.013439035,-0.007406741,0
365,-0.7530563,-0.2903283,-0.37863255,0.03191771,0.05131268,0.048181996,0
366,-0.7432684,-1.4607712,-0.30356693,0.08689558,0.073303826,0.00908662,0
367,0.0018463135,-0.7699849,0.19917679,-0.02367103,-0.0036651916,0.016417004,0
368,-0.379192,0.21507338,0.016971588,-0.04138612,-0.089186326,-0.0012980887,0
369,-0.3473251,0.0853177,-1.4288893,-0.046883907,0.034208454,-0.13691017,0
370,-0.6498811,-0.61566293,-0.5093584,0.075289145,0.20586158,-0.05749769,0
371,0.495327,1.4617133,1.0320253,0.054519724,0.08124508,0.034742963,0
372,-0.50986385,-0.6987827,0.54555035,-0.009010263,-0.043982297,0.017638734,0
373,0.37059164,0.26664853,1.0558157,-0.13729197,-0.026267206,0.112322845,0
374,-0.6360992,-0.07805019,0.4503069,0.02275473,-0.020158553,0.013362677,0
375,0.19709587,0.24788718,0.5003128,-0.098807454,0.05009095,0.09155343,0
376,-0.77271616,-0.9636922,-0.36951733,0.044745877,-0.025045475,-0.028787024,0
377,0.6578007,-0.9359663,0.24252605,-0.045662176,0.08307768,-0.036728274,0
378,-1.4319603,-1.3797793,0.2412796,0.047800206,-0.017715093,0.03352123,0
379,-0.020103335,-0.618818,-0.97738457,0.04046982,0.0036651916,0.0622319,0
380,1.2799386,0.52942693,1.869875,0.03191771,-0.018936822,0.053679783,0
381,0.2112279,0.013407722,-0.6874237,0.025198191,-0.042760566,0.032910366,0
382,-0.72290814,0.13029355,-0.6044941,0.021533,-0.025045475,0.012751812,0
383,-0.28149903,-0.60329264,-0.6025686,-0.060322944,0.022602014,-0.00496328,0
384,-0.32566845,0.43022498,1.2657633,0.02275473,0.026267206,-0.01656972,0
385,0.000631094,0.39010757,-0.8281784,-0.013286319,0.03176499,0.006032294,0
386,1.2975018,0.03899914,2.526945,0.026419923,0.056199603,0.0048105638,0
387,-0.64859545,0.6222975,-0.57079506,0.016646078,0.07880162,-0.009850202,0
388,0.8033004,-0.20223112,-2.5266414,0.0032070426,-0.04642576,0.0005345071,0
389,-0.5593376,0.5207645,-1.5903459,-0.043829583,0.06841691,0.014584408,0
390,0.30440903,0.46616894,-0.74984837,-0.026725354,-0.032986723,-0.015958855,0
391,-0.00793457,0.005592048,-1.5888295,-0.02367103,-0.047036625,-0.0061850105,0
392,-0.36268735,0.041207254,-0.6900797,-0.1226312,-0.042760566,-0.08865182,0
393,-0.28960586,0.5059523,1.8830795,-0.13362677,-0.032986723,-0.030619621,0
394,-0.88945293,-0.83640265,0.6699171,-0.01572978,0.008552114,0.054901514,0
395,0.68453455,0.28842375,0.6040611,-0.023060163,0.02443461,0.058566704,0
396,2.5089524,1.812119,-1.4902163,0.021533,-0.06658431,-0.009850202,0
397,0.78901875,1.1138936,-1.5653076,-0.034055736,-0.1600467,0.016417004,0
398,0.29153407,0.10000637,0.2806492,0.010537425,0.1441642,0.009697486,0
399,0.7734021,0.6709324,-1.568533,-0.025503624,-0.02076942,0.025579982,0
400,-0.07163334,0.9764384,-0.26089287,-0.043218717,0.053145275,0.015195273,0
401,-0.91495967,1.0541723,0.54934216,-0.035277467,-0.010995574,0.007254025,0
402,0.20794773,-0.43980244,0.7917261,-0.13973543,-0.04520403,0.070173144,0
403,0.89963675,-1.2510958,1.212842,-0.064599,-0.08674286,0.05673411,0
404,0.06488228,0.17256615,-1.2715492,-0.1067487,0.24556783,0.015195273,0
405,-0.029850483,-1.2884343,4.906192,-0.13973543,-0.09712757,-0.08498663,0
406,1.5699337,0.19490254,1.7158489,-0.10125092,-0.02687807,0.010919216,0
407,0.040717363,-0.3426364,-0.5512476,0.20906863,0.1160644,-0.028176159,0
408,-1.2269511,-0.5976982,-0.06204319,0.08628472,0.005497787,0.03596469,0
409,-0.7989179,-0.11568266,-0.28425312,0.044135015,0.0,-0.025732698,0
410,0.462615,-0.32989752,1.3358593,0.12721269,0.19425514,0.017638734,0
411,-0.09727144,0.57977724,0.79787636,-0.06154467,0.017104227,0.077503525,0
412,0.23294139,0.6971167,1.0552568,-0.01695151,0.03481932,0.011530082,0
413,0.83166385,-0.07652971,-0.36061478,0.023365596,0.056199603,0.03718642,0
414,0.4358518,-0.6372194,0.55669403,-0.02611449,0.018936822,-0.048334714,0
415,0.2558267,0.3026677,0.5458555,-0.034055736,0.03481932,0.026801713,0
416,-0.9075968,-1.2297766,1.8519249,-0.0926988,-0.051923547,-0.05261077,0
417,-0.06473565,0.11134885,0.64242554,-0.00045814895,0.21868975,0.021914791,0
418,0.19034219,0.7464454,-2.0826454,0.06612616,0.040317107,-0.0037415496,0
419,0.11460757,-0.18059784,-0.26444912,0.007483099,0.1423316,0.012140946,0
420,-0.6445849,-1.5396824,0.26447392,-0.12935072,0.017104227,-0.0129045285,0
421,0.15953517,0.8927524,-0.0153951645,-0.00045814895,0.009773844,-0.014126259,0
422,-0.6067896,-1.0438714,-0.13830662,0.013591751,-0.21380283,-0.039171733,0
423,0.9169929,0.2217115,1.8149834,-0.058490347,0.13194689,0.017027868,0
424,-1.0590467,-0.473343,-1.4633007,-0.07925977,-0.12950343,0.015195273,0
425,-1.812112,-0.2548878,0.0028066635,-0.06887506,-0.31337386,0.006032294,0
426,1.248816,0.29745567,0.5898886,-0.0786489,-0.18020524,0.0011453723,0
427,-0.3742988,-0.6746378,0.48809624,-0.07620544,0.01160644,-0.027565295,0
428,0.553911,-0.741951,1.1762972,0.14920384,0.46975538,-0.0037415496,0
429,0.5328977,-0.2614141,0.32474327,-0.07070765,0.18142697,0.22960897,0
430,0.29346967,-0.20122498,0.8656435,-0.03894266,0.07819075,0.025579982,0
431,0.4756055,0.20784998,0.1974783,-0.01450805,-0.021380283,0.021914791,0
432,-0.55453396,-1.1656574,-0.37894535,0.018478673,0.0030543262,-0.009850202,0
433,-0.30489838,0.66455215,-0.3825922,-0.029168816,-0.08674286,-0.014126259,0
434,1.357024,0.43891844,0.47256565,0.15897769,0.23151793,0.020082194,0
435,0.68505335,-0.11592513,0.93699646,-0.06765333,-0.14782938,-0.06116288,0
436,0.9393575,0.58438843,-2.5390754,-0.010231993,0.07696902,-0.0110719325,0
437,0.49633026,-0.20601207,-0.19851017,-0.039553523,-0.11911872,-0.076434515,0
438,0.4516058,0.48230696,0.93057156,0.001985312,0.040317107,-0.033673946,0
439,-0.55122447,-0.031457007,0.17109776,-0.009010263,-0.01038471,-0.0061850105,0
440,0.5645814,0.7544526,-0.3775301,-0.0071776668,-0.06719518,0.022525655,0
441,-0.051659822,-0.3356244,0.16028595,0.03191771,0.09773844,0.051847186,0
442,-1.2352134,0.73405963,1.6423712,0.028863383,0.0018325958,0.006032294,0
443,-1.1974677,0.4710648,-0.52852345,0.016035212,-0.080634214,-0.020845776,0
444,-0.724089,-0.20638904,-0.27505112,0.031306844,-0.04337143,-0.034895677,0
445,-0.0842123,-0.04938993,-0.75701046,0.009315695,0.11362094,0.015806139,0
446,-0.6744447,-0.14493942,-0.5986061,-0.02977968,-0.1563815,-0.032452215,0
447,-0.24925208,0.68087757,0.2373066,0.075289145,0.07696902,0.034742963,0
448,0.8665528,-0.5200677,0.37991714,0.025809057,0.10629055,-0.0019089539,0
449,-0.64320636,-0.7320719,-0.34587574,0.011759156,0.10262536,0.061621033,0
450,-0.054543734,0.34203526,-0.19346905,0.007483099,-0.047647487,0.02069306,0
451,-0.036085844,-0.14548215,-0.72836685,0.04718934,0.065973446,0.0139735425,0
452,0.07778096,0.14447641,-0.34722233,0.049632803,0.050701816,0.002977968,0
453,0.20443249,-0.44846198,0.203331,-0.03283401,0.03604105,0.01947133,0
454,-0.07967162,-0.37240738,-1.0803804,-0.037110064,0.042760566,-0.009850202,0
455,-0.22931421,-0.30673414,0.6236601,-0.027947085,-0.027488936,-0.017180584,0
456,1.6583589,0.19247384,0.13265324,-0.011453724,-0.07269296,-0.009850202,0
457,-0.31036663,-0.068618774,0.14906693,0.018478673,-0.07941248,-0.048945576,0
458,1.0894045,-0.59240294,-0.10585022,-0.04627304,-0.052534413,-0.00496328,0
459,-0.27613664,-0.55357474,0.26590538,0.094225965,0.15515977,0.018860465,0
460,-0.04516661,0.3165699,0.40484715,-0.012675454,-0.036651913,0.010308351,0
461,0.9869417,-0.010799736,0.3902979,-0.02733622,0.014049901,-0.0055741454,0
462,1.3781554,0.13707142,-0.9077711,-0.012064588,0.089186326,0.017027868,0
463,1.4017797,-0.33752275,0.7875662,-0.09025534,-0.14477506,-0.018402316,0
464,0.18587554,-0.12571466,-0.97267056,-0.010231993,0.10445796,0.016417004,0
465,0.29148555,-0.14027604,-1.0908899,-0.015118915,0.017715093,-0.00496328,0
466,-1.325272,-0.4560146,-0.5985441,-0.043218717,0.1423316,0.043295074,0
467,-0.058419347,-0.40330976,-0.83809376,0.030085113,0.18081611,0.04085161,0
468,0.93248606,-1.4718277,0.90140915,-0.05665775,-0.2602286,-0.0067958757,0
469,-0.72283673,-0.9780785,0.2658205,-0.020616703,0.03604105,0.015195273,0
470,0.016498089,0.22365475,0.90029716,0.017256944,0.058643065,0.0048105638,0
471,-0.07739544,0.3881409,-0.16351032,-0.027947085,-0.13988814,-0.025732698,0
472,0.41235733,-0.24281716,-0.17994976,-0.020005837,-0.050701816,0.0017562376,0
473,0.29378867,0.63656104,-0.09507275,0.012370021,0.034208454,-0.010461068,0
474,0.27055347,0.47573295,-0.26959038,0.061850104,0.14660765,0.021914791,0
475,-0.37055242,-1.0120957,0.2917719,-0.012064588,-0.12644911,-0.033673946,0
476,-0.23811936,0.62763774,1.4502983,-0.026725354,-0.021380283,-0.0055741454,0
477,0.22274315,-0.8273667,0.25972557,0.016646078,0.07269296,0.01947133,0
478,-0.4009421,0.35713506,0.11826229,0.030695979,-0.042760566,-0.01656972,0
479,0.44990587,0.5561523,-0.31680202,-0.020616703,0.028710667,0.04085161,0
480,-0.41796756,1.2013156,-0.4601345,-0.010842858,0.20830505,0.045738537,0
481,-0.6966207,-0.35035992,0.44728088,0.013591751,-0.1020145,0.065897085,0
482,0.5598773,1.0532818,-0.29366112,-0.0041233404,-0.0720821,0.05551238,0
483,0.5952276,0.7035109,0.7036028,0.006872234,-0.029321533,0.05551238,0
484,-1.5372773,-0.0072003156,-0.8738785,0.001985312,0.009773844,0.07689266,0
485,0.09083426,-0.71478146,1.0165701,0.21456642,0.3213151,0.0603993,0
486,0.5029361,0.03971535,1.3790188,0.065515295,0.2003638,0.106214195,0
487,-0.20817196,0.91589415,0.84151363,-0.041996986,-0.015882496,0.028023442,0
488,-0.06735623,0.112042286,-1.1783543,0.0050396384,-0.022602014,0.025579982,0
489,-0.819084,-0.0071745217,-1.4083242,0.036193766,0.0030543262,0.021914791,0
490,0.12722957,-0.83313066,0.3100481,0.018478673,0.09101892,0.024358252,0
491,0.73136485,-0.523913,-0.57374763,-0.00045814895,0.04520403,-0.0031306844,0
492,-0.06942606,-2.1235468,-0.15050602,0.08506299,-0.005497787,-0.01779145,0
493,0.5164496,0.2838661,0.34888554,-0.010842858,-0.059253927,-0.0061850105,0
494,-0.42937052,-0.032528177,0.0634985,0.051465396,0.057421334,0.015806139,0
495,0.611081,-0.33089286,-0.1867714,0.046578474,0.053145275,-0.0110719325,0
496,0.2733488,0.37539053,-0.33380508,0.041691553,0.0,0.022525655,0
497,0.4119799,0.24430086,-0.08350468,0.03313944,-0.039095376,-0.020845776,0
498,0.7059561,0.98366845,0.64850426,-0.007788532,0.06169739,0.0017562376,0
499,0.58627033,-0.41322398,0.7703209,-0.0627664,-0.0580322,-0.007406741,0
500,-0.79241014,-0.4794762,-0.010928154,-0.08231409,-0.03359759,-0.023289237,0
501,-0.20290077,-1.1505759,0.31783962,0.0062613687,-0.029932396,0.005421429,0
502,-0.06422377,-0.73578554,-0.6465864,-0.029168816,-0.040317107,-0.030008756,0
503,1.271913,-0.09693989,0.19382381,0.071013086,0.1001819,-0.099647395,0
504,1.5661707,0.6795253,0.41893196,-0.091477074,0.053145275,-0.09231701,0
505,1.6153026,-0.72035074,-0.4547453,-0.058490347,-0.1160644,-0.12713633,0
506,-0.43961787,-0.09338666,-1.9841113,-0.048716504,-0.007941248,-0.031230485,0
507,-0.14751601,0.40862948,-2.2102976,-0.17577648,-0.042760566,0.010919216,0
508,-1.2345526,0.23546207,-0.123518944,0.044745877,0.044593163,-0.01779145,0
509,-0.17547059,-0.080326095,-0.004948616,-0.0010690142,-0.053145275,-0.0067958757,0
510,1.1168303,0.29272595,0.33879948,0.00870483,0.0067195175,0.002977968,0
511,1.2078149,-0.07834427,1.4586096,-0.14401148,-0.17348573,-0.04222606,0
512,0.19444942,-0.0077255517,0.8419733,0.029474247,-0.005497787,-0.025121834,0
513,0.10776925,-0.19220549,-0.11547375,-0.021838432,0.03848451,-0.044058654,0
514,-0.32233548,-0.7038464,1.8271141,0.05024367,-0.11362094,-0.031841353,0
515,0.24665713,-0.1510436,-1.4692621,-0.0041233404,-0.25961772,-0.48327076,0
516,-1.1504489,0.19113836,-1.3396378,0.00015271631,-0.21135938,-0.0978148,0
517,-0.22838187,-0.4724136,-0.19549751,-0.09086621,-0.10567969,0.039629884,0
518,1.3629549,-0.11204606,2.6271086,0.2817616,0.23579398,0.0622319,0
519,-0.1380055,0.06646913,0.27517128,-0.043829583,-0.05131268,0.09521862,0
520,1.3930573,-0.3099401,0.19795704,0.059406646,0.086132,0.041462477,0
521,-1.0390513,-0.0018559396,-1.2418499,0.014813482,0.01038471,0.06956228,0
522,1.0892208,1.0866545,-0.13324451,-0.021838432,-0.050701816,-0.044058654,0
523,-0.1809529,0.49053422,0.1965599,-0.012064588,0.07513642,0.04512767,0
524,-0.17257702,0.70391554,0.3533783,-0.02611449,-0.02076942,0.0005345071,0
525,0.16751683,0.44343358,1.7863369,-0.04138612,-0.112399206,-0.0067958757,0
526,0.3290348,-0.21074083,0.305295,0.0062613687,-0.017715093,-0.008017606,0
527,-0.00056934357,0.41200978,-1.3426485,0.019700404,-0.096516706,-0.024510968,0
528,0.43549228,0.74645764,-0.91782284,0.0154243475,-0.02076942,-0.014737124,0
529,1.1563863,0.83394015,-0.34696674,-0.035277467,-0.027488936,0.012140946,0
530,0.980603,-0.4627953,-0.8021641,0.017256944,0.2510656,0.016417004,0
531,1.2451155,0.41879752,-0.53468513,0.01786781,-0.065973446,-0.03306308,0
532,0.17771459,0.98906744,0.158185,0.100334615,0.07819075,-0.008017606,0
533,0.58838177,0.34991443,-0.3020258,0.017256944,0.059864793,-0.05749769,0
534,0.27177906,-0.3176977,-1.3043566,0.024587326,0.23640485,-0.032452215,0
535,1.2970872,-0.289931,0.48964405,-0.013897184,0.009162978,-0.0538325,0
536,0.6208844,-0.23079026,-0.37490177,-0.020616703,-0.03726278,-0.05749769,0
537,0.07816887,0.08086151,0.99902534,0.02275473,-0.037873644,-0.017180584,0
538,0.032126665,-1.4262593,0.34059143,0.010537425,-0.047647487,-0.0019089539,0
539,-0.5744629,-1.6591148,-0.14958858,0.025198191,-0.0720821,-0.015347989,0
540,-0.29188764,-1.0415342,0.3373127,-0.02855795,-0.07391469,-0.018402316,0
541,-0.22603464,-0.5312053,0.018574715,-0.016340645,-0.11911872,-0.010461068,0
542,0.058799982,-0.80252695,0.37325382,-0.0035124752,-0.052534413,-0.0067958757,0
543,-0.7985405,-0.42668962,-1.0020752,0.00076358154,0.014660766,0.05245805,0
544,-0.53823745,-0.30945587,-0.0015459061,0.029474247,-0.025045475,0.112322845,0
545,-0.5153528,0.3229189,-0.027294159,0.07162395,0.05497787,0.31451926,0
546,-0.42762697,0.2944883,0.10162735,0.06307184,-0.08735373,0.40614903,0
547,-0.031713493,-0.08391827,-0.15555286,0.059406646,-0.07880162,0.51732653,0
548,0.344795,-0.03533107,-0.075208664,0.055741455,-0.16920967,0.45318565,0
549,0.8982495,0.028264463,-0.26040077,0.021533,0.014049901,0.32673654,0
550,2.5152426,-1.4317896,0.3301115,0.1956296,-0.021991149,0.11965323,0
551,0.66863656,-0.9365903,-0.8662405,-0.0022907446,-0.03970624,-0.02695443,0
552,0.093574286,0.75457877,-2.3041115,0.11804971,0.10262536,0.20639609,0
553,-0.3275652,-1.4359556,-0.73935795,0.24755314,0.535118,-0.22059871,0
554,-0.057436705,0.9079493,1.5271358,-0.08231409,0.032375857,-0.32566753,0
555,0.6734171,-2.16608,2.2836838,-0.14645495,-0.11728613,-0.5614615,0
556,0.20289707,-0.65013266,-0.74814224,-0.2875648,-0.37018433,-0.44356453,0
557,-0.5614152,-0.15944195,0.63160133,-0.062155537,-0.2669481,-0.35132387,0
558,-0.91252375,-0.29998893,-0.71045685,-0.033444874,0.070249505,-0.12224941,0
559,-0.109808445,1.3911144,0.9050455,0.1479821,0.2602286,0.15569428,0
560,-1.922281,0.26151702,0.81701946,-0.0016798794,0.14660765,0.29619327,0
561,-0.63623285,1.1276133,-0.5098686,-0.07315111,-0.32803464,0.35117117,0
562,-1.6712124,0.101218164,1.5529861,0.10277808,0.12034045,0.52038085,0
563,-0.907002,-1.1735969,0.6423836,0.16752979,-0.062308256,0.5264895,0
564,-1.9098209,0.16365415,-0.09655571,0.11010846,-0.07696902,0.50205487,0
565,-1.0430788,-0.26890445,1.0764198,0.041080687,-0.034208454,0.51427215,0
566,-0.7651744,-0.5213484,-0.060153008,0.113162786,-0.08857546,0.48372892,0
567,-0.400496,-0.5043357,-0.6483774,0.03191771,0.1826487,0.27908906,0
568,-0.20211792,-1.3634696,0.6128807,-0.012064588,-0.0012217305,0.18012889,0
569,0.50870955,-2.3056333,1.3682127,0.022143865,-0.009162978,0.051236324,0
570,-0.5754907,-0.6420709,0.29804993,0.007483099,0.004276057,-0.0006872234,0
571,0.1607877,0.026787877,-0.04210186,-0.010231993,-0.00061086525,-0.0031306844,0
572,0.5972079,0.01051259,-0.18875217,-0.019394971,-0.029932396,0.03596469,0
573,-0.36864388,-0.08297765,-0.11356926,-0.0016798794,-0.1020145,0.17157678,0
574,0.18407774,0.6053978,0.79770756,0.10399981,-0.086132,0.19601138,0
575,0.3320011,1.0934865,0.24692535,0.0056505036,0.06841691,0.17951803,0
576,-1.0740231,0.49058187,1.1653833,-0.0041233404,-0.053145275,0.2570979,0
577,-0.14754963,0.17769188,-0.24219131,0.11071932,-0.005497787,0.24915667,0
578,1.0301888,0.40738815,0.070752144,-0.0041233404,-0.087964594,0.18379408,0
579,1.095551,1.1317163,-0.3211527,0.02275473,-0.13500121,0.0884991,0
580,0.1641891,0.006551087,0.24252892,0.08200866,0.04337143,0.05673411,0
581,-0.564914,0.6863041,0.37143898,-0.117744274,-0.19364429,-0.07582365,0
582,0.4898994,1.1407373,-0.11038113,0.0025961774,0.009162978,-0.0092393365,0
583,-0.048973083,0.7001127,-0.06347942,0.07284568,0.12522738,0.051236324,0
584,0.031963706,0.80641913,0.46327877,0.04230242,0.019547688,0.20761782,0
585,-0.71170926,0.41846478,-0.83405304,0.055741455,-0.03176499,0.26259568,0
586,0.12218666,-0.34776318,0.0024223328,0.12110403,0.040317107,0.24426974,0
587,-0.41870224,0.05317104,2.2214575,0.18402316,-0.009162978,0.13492486,0
588,-1.6376058,-1.5124228,0.1487503,0.06918049,-0.076358154,0.03901902,0
589,0.14603937,-0.3773564,0.24803829,0.05513059,-0.27122417,-0.34460434,0
590,-1.0438817,-2.3658812,2.9794712,0.010537425,-0.09896017,0.090331696,0
591,1.3606005,-3.578845,0.86953163,-0.04016439,0.05497787,0.34567338,0
592,-1.4628837,-0.8647557,0.4906807,0.17852537,0.59559363,0.20700696,0
593,-1.8697839,0.478813,-0.8221798,0.2817616,0.43188173,0.24793494,0
594,-0.51804364,-0.6185088,0.60442543,0.15347989,-0.18203785,0.22350033,0
595,-1.7938365,-1.7622671,0.47893333,-0.03283401,-0.23335053,0.18257235,0
596,-0.15272486,-0.893272,-0.40758514,-0.07803804,0.0036651916,0.17402023,0
597,-0.5546738,-0.798226,0.4517107,0.012370021,0.051923547,0.05673411,0
598,-0.8512211,-2.446064,0.3300352,0.09728029,0.015271631,-0.014737124,0
599,-0.5101371,-1.2260644,0.9339285,0.01786781,0.037873644,-0.019624045,0
600,0.4568373,-0.2875158,-0.20781326,0.01786781,0.0067195175,-0.046502117,0
601,-0.13855004,-0.058543324,-0.5648413,-0.0346666,0.014049901,-0.083764896,0
602,0.284276,0.47457635,0.3851347,-0.06765333,-0.01160644,-0.2242639,0
603,1.5990479,0.38366675,0.85644627,-0.09636399,0.08307768,-0.3458261,0
604,0.62328863,0.20398295,0.350832,-0.1385137,-0.10323623,-0.49793154,0
605,1.4427435,-0.1261189,-1.7974648,-0.14523321,0.17104226,-0.45150578,0
606,1.4641161,0.7626747,-0.62368965,-0.076816306,0.014660766,-0.2822961,0
607,0.4488585,-1.7443461,0.5654316,-0.032223143,0.02076942,-0.14485142,0
608,-0.07701111,-0.92430186,0.24703026,0.009315695,0.03726278,-0.041615196,0
609,0.1374228,0.11220431,-0.15169334,0.026419923,0.12889257,0.061621033,0
610,0.41126227,0.94552314,-0.24467468,-0.018784106,0.04886922,0.07933612,0
611,0.14207673,-0.37121624,0.5190573,-0.00290161,0.032986723,0.0603993,0
612,-0.5569669,-0.80011284,1.2094545,-0.010231993,-0.009162978,0.029245174,0
613,-0.19993865,0.43333232,-1.6276379,-0.075594574,-0.065973446,0.02313652,0
614,-0.38921416,-1.069015,-0.57050514,0.03924809,-0.031154128,0.087277375,0
615,0.4732579,0.34051347,0.37805557,0.03436117,-0.012217305,0.02069306,0
616,0.29319298,0.19268191,0.14567757,0.007483099,-0.0036651916,0.009697486,0
617,-1.072531,-0.83113647,0.284482,-0.012675454,0.11056661,0.08239045,0
618,0.117099285,1.1964908,0.15334225,-0.1226312,-0.12095132,0.05795584,0
619,0.036445856,-0.47728482,-0.59800434,-0.015118915,-0.07880162,0.022525655,0
620,0.09764075,-0.5201133,-0.45720482,0.08689558,0.14477506,0.053068917,0
621,-0.034880042,-0.34203875,0.36145973,-0.02977968,0.0061086523,0.037797287,0
622,0.3321674,-0.08323842,0.16269875,0.03680463,0.11789699,0.035353824,0
623,0.10158324,-0.40463877,-0.07546139,0.011759156,0.01038471,0.0139735425,0
624,-0.11293006,0.38940006,0.51004505,-0.009010263,-0.028710667,-0.009850202,0
625,-0.5971999,1.0624743,-0.18441868,0.051465396,0.02321288,-0.009850202,0
626,0.52147114,0.5292369,0.43230915,-0.008399397,-0.018325957,0.012751812,0
627,0.71410704,1.6791232,0.6327362,-0.023060163,-0.05375614,-7.6358156e-05,0
628,-0.8954813,0.6466949,-0.8552408,0.04841107,0.034208454,0.0041996986,0
629,-1.1214677,1.2292928,-0.5646105,0.032528576,0.059864793,0.023747386,0
630,-0.26859748,-0.38817632,-0.84255505,-0.02977968,-0.062308256,-0.0055741454,0
631,-0.36955535,-0.77380395,-0.33473873,0.011148291,0.0720821,0.017027868,0
632,0.19427443,0.45668578,0.23287392,0.025198191,0.021991149,0.024969118,0
633,-0.3366214,1.2297982,1.1876631,0.00870483,-0.17104226,0.028023442,0
634,0.50029635,1.0094546,0.0069799423,0.00992656,-0.11789699,0.012751812,0
635,0.14944553,1.7533877,-0.14399147,-0.013897184,0.036651913,0.035353824,0
636,-0.2985816,1.024201,1.3749132,0.049632803,0.009162978,0.030466905,0
637,-1.9584488,-2.573743,1.909379,-0.020616703,-0.0720821,0.010308351,0
638,0.04413879,-1.7667391,1.9661274,0.03863723,-0.1600467,-0.08437576,0
639,0.59396553,-0.051578224,-2.7402616,-0.027947085,-0.08979719,-0.047112983,0
640,-0.71120703,-0.08914128,0.61780643,-0.035888333,-0.081855945,-0.023289237,0
641,1.102657,-0.14257756,-0.9020567,-0.0016798794,0.057421334,0.006032294,0
642,-0.3029871,-0.59020543,-0.70291233,0.019700404,0.124005646,-0.008017606,0
643,-0.4702406,-0.5613532,-0.5663576,0.007483099,0.009773844,0.0139735425,0
644,-0.41078174,-0.892748,-0.2838564,-0.076816306,0.028099801,0.05245805,0
645,0.16291046,-0.15430644,-2.1830459,-0.10980303,0.026267206,-0.031841353,0
646,0.19354117,0.034735143,-0.39703178,0.056963183,0.015271631,0.04390594,0
647,-0.45881522,0.069915324,0.38235092,0.08017606,0.2125811,0.73112935,0
648,-0.36224866,1.3725277,-0.6459875,-0.0010690142,-0.06780604,0.1465313,0
649,-1.907216,0.15964231,1.862299,0.024587326,-0.069027774,0.16791159,0
650,-0.50686955,1.3351102,-0.9131155,0.014202617,-0.005497787,0.051847186,0
651,-1.0642374,-0.6184949,-0.08961487,0.041080687,-0.009162978,0.07811439,0
652,-0.69829106,0.26956436,-1.0594797,0.0062613687,-0.073303826,0.041462477,0
653,-0.6101984,-0.8844038,-0.224679,0.027641652,0.02443461,0.034132097,0
654,0.77752566,0.30503777,1.6295185,-0.012675454,0.08552113,0.017638734,0
655,0.73080754,0.26767406,0.98848915,-0.029168816,-0.021380283,-0.004352415,0
656,1.4776874,1.4848181,-0.047616005,0.078343466,0.076358154,-0.0055741454,0
657,-0.41681814,-1.2963747,-0.5194626,0.00076358154,0.086132,-0.0037415496,0
658,0.22266197,1.7707328,0.23716831,0.016646078,-0.016493361,-0.08071057,0
659,0.5108726,0.43023238,-0.25705528,-0.015118915,-0.054367006,-0.026343564,0
660,2.0136995,0.54507196,-0.8096447,0.016035212,-0.13194689,-0.054443367,0
661,1.0519447,-0.15959644,-0.04487419,0.033750303,0.002443461,-0.02939789,0
662,-0.40830684,0.38051003,0.9647474,-0.00290161,0.2864958,0.0463494,0
663,1.2436733,-0.35952988,0.5658617,-0.005955936,-0.070249505,-0.04466952,0
664,1.505762,-0.2035577,-1.0935163,0.02397646,0.105068825,-0.05138904,0
665,1.0619525,0.005475968,-0.8173933,0.00015271631,-0.0720821,-0.06299548,0
666,0.51174486,-0.90884984,0.15187073,-0.02611449,-0.103847094,-0.086819224,0
667,1.7384689,1.3155266,-0.30425358,-0.02367103,-0.009162978,0.0005345071,0
668,-0.09929919,0.29797715,-0.5035467,0.036193766,0.22968534,-0.026343564,0
669,1.9839971,1.205527,1.1677351,-0.09819659,-0.005497787,-0.05749769,0
670,1.9405804,-2.1030433,0.547719,0.009315695,0.19425514,-0.061773747,0
671,0.7891383,-0.64093125,-0.3833294,-0.047494773,-0.11362094,-0.07032586,0
672,1.0810113,-0.40784103,0.61438847,-0.016340645,-0.0030543262,-0.03795,0
673,-0.12201643,-1.9112821,-0.6814165,0.03313944,-0.035430185,0.0035888334,0
674,-0.6472831,-1.3982311,-0.5331373,-0.008399397,0.02687807,-0.008017606,0
675,-0.5857099,-1.6328287,0.092811584,0.008093964,-0.080634214,-0.008628472,0
676,-0.5347477,-0.04429859,-0.19120693,-0.0096211275,0.12217305,0.07383834,0
677,0.7335012,1.1490476,0.5113716,-0.04627304,-0.03848451,0.021914791,0
678,0.3121524,0.71033704,-0.7624264,-0.0364992,-0.035430185,0.02069306,0
679,0.5666568,2.3416188,1.5069828,0.012370021,-0.03359759,0.0017562376,0
680,-0.6274482,0.19800434,0.8199158,-0.024281893,-0.081855945,0.011530082,0
681,0.40572643,1.6957283,-0.87206745,0.001985312,-0.1704314,-0.042836927,0
682,-0.16157699,0.3820323,-0.26260662,0.0062613687,-0.03604105,-0.00496328,0
683,-0.1201148,1.3009232,-0.08199215,0.04841107,0.039095376,-0.042836927,0
684,-1.0512913,0.5723382,-0.08485794,0.05757405,0.08368854,0.02313652,0
685,0.23967695,0.2552844,-2.34524,-0.010842858,0.026267206,0.026190847,0
686,-0.8772129,-0.0959194,-0.33966827,-0.054825157,-0.06841691,0.04390594,0
687,-0.7303902,0.6445043,0.21889114,-0.07437284,-0.20280726,0.017638734,0
688,-0.2617097,0.88043594,-0.5672054,0.0032070426,-0.017104227,-0.018402316,0
689,-0.5680224,0.43675834,0.7887192,-0.06704246,0.0030543262,0.0463494,0
690,-0.4389205,1.0478426,-0.13157749,0.012980887,0.008552114,0.0139735425,0
691,-1.4025836,-0.120562255,-0.05661106,-0.0053450707,0.052534413,-0.023900103,0
692,-0.6899687,-0.7805097,0.808527,0.045356743,0.1001819,-0.021456642,0
693,0.074970484,0.4689448,-1.2825317,0.022143865,-0.089186326,0.0463494,0
694,0.6682217,0.3344247,0.16899967,-0.040775254,0.09101892,0.089109965,0
695,0.26713026,-0.11490896,0.62590027,-0.005955936,0.022602014,0.12087496,0
696,-0.24455321,1.0023086,-0.05278206,0.008093964,0.014049901,-0.048945576,0
697,-1.2424328,0.15371498,-0.20565033,-0.10186178,-0.50579643,-0.09720393,0
698,0.06470144,-0.1331925,-0.40623283,-0.00290161,0.07269296,0.09644035,0
699,-1.3918254,1.0933129,0.7494955,-0.049938235,-0.048258353,0.00786489,0
700,-0.19991648,0.20212922,0.044683456,0.09666943,0.14355333,0.018860465,0
701,-1.8096787,-1.4094648,-0.33883476,0.075289145,0.073303826,0.002977968,0
702,0.2573502,0.6867457,-1.031743,0.010537425,-0.014660766,0.012751812,0
703,0.6500881,0.3196152,0.86803246,0.05757405,0.12767084,0.022525655,0
704,0.5868373,-0.1069407,0.82673454,0.0062613687,-0.07574729,0.02069306,0
705,0.45173407,0.40016013,0.20748901,-0.00290161,-0.13194689,-0.038560867,0
706,0.42225385,0.09699651,-0.45035076,-0.04138612,-0.0030543262,0.00908662,0
707,-1.4236269,1.3405201,0.5310621,-0.035888333,0.017715093,0.026190847,0
708,0.083128214,-0.3606336,-0.83594036,-0.054825157,-0.095294975,-0.027565295,0
709,0.46420074,-0.13835078,-0.5917263,0.00870483,-0.040927973,-0.018402316,0
710,0.15442705,-0.11684701,0.20349026,0.019089539,0.02443461,-0.024510968,0
711,1.1042683,-0.26806283,-0.0051994324,-0.033444874,-0.13255776,0.05795584,0
712,0.7303755,-0.16196689,-0.120209694,0.036193766,-0.07819075,0.0011453723,0
713,-1.1225946,-0.2505605,3.2046804,-0.0664316,0.18997909,0.04757113,0
714,-0.9048624,0.32294068,0.58187294,0.025198191,0.08124508,0.037797287,0
715,0.10470843,1.0605251,-0.6725807,-0.034055736,0.099571034,0.10560333,0
716,-1.1202767,-0.21340388,-0.2765131,-0.0065668016,-0.108123146,0.0048105638,0
717,-0.09445393,0.32861355,0.23159695,0.08200866,-0.096516706,-0.028787024,0
718,0.1194942,0.42191732,-2.941308,0.16691893,0.06414085,0.3206279,0
719,0.6549158,-1.3212717,1.4578304,0.09789115,0.15393804,-0.08132143,0
720,0.62814736,0.41262424,-0.8723793,-0.058490347,0.016493361,-0.031230485,0
721,-1.3559704,-0.49677557,-0.05106449,-0.04444045,0.017715093,0.006032294,0
722,-0.4965049,-1.188516,0.7320461,-0.053603426,-0.06841691,0.3554472,0
723,0.43291163,0.30135986,-0.7893591,-0.063988134,-0.019547688,-0.01779145,0
724,-0.10511792,1.4142807,-0.16216755,0.013591751,0.007330383,0.05551238,0
725,-0.8588588,-1.1355108,1.3569937,0.08628472,0.13439035,0.03352123,0
726,-0.27617753,0.17150798,-1.5976753,0.10399981,0.048258353,-0.007406741,0
727,0.08783007,1.1496153,0.27871227,0.025198191,-0.030543262,-0.022067508,0
728,-0.4551549,-0.6998178,-0.32614422,-0.040775254,0.03176499,-0.05749769,0
729,0.38235486,1.0229706,0.11377239,-0.026725354,-0.09712757,-0.020845776,0
730,0.72677374,1.2622215,1.5543547,-0.012675454,0.08124508,0.00786489,0
731,-0.07755399,0.72378516,0.8091717,0.06734789,0.093462385,0.07322747,0
732,-1.527012,-0.93309855,-0.9632015,-0.25579983,-0.49418998,-0.39958224,0
733,-0.48635638,-0.5146767,-1.2740908,0.051465396,-0.108123146,0.44585526,0
734,-0.2045176,-0.64454436,0.71335506,0.03924809,0.16126843,0.03352123,0
735,-0.5347866,-0.16872129,-0.6818819,-0.054825157,0.023823744,0.07689266,0
736,-0.33960938,0.5172755,2.2816706,-0.14767668,-0.30787608,0.12637275,0
737,-0.9550553,-0.5986079,-1.9445143,0.08628472,-0.026267206,-0.22304218,0
738,0.17454004,1.7030935,2.532301,-0.012064588,-0.013439035,-0.09903653,0
739,-0.5997513,-0.47478628,-0.670413,0.105832405,-0.039095376,-0.008628472,0
740,-0.27337277,-0.21228379,0.95430946,0.039858956,0.37751472,0.0139735425,0
741,0.5802932,-0.62733674,1.7544193,-0.18982637,-0.32070425,-0.06727154,0
742,2.250085,-0.014035612,-1.3901253,-0.056046885,-0.05681047,-0.058719423,0
743,-0.25195587,0.81330407,2.6939526,-0.11652254,0.076358154,0.16974418,0
744,0.35046136,-0.1214817,1.9397297,-0.17638734,-0.37507126,0.20395264,0
745,-0.60097635,-0.24566996,-1.6826358,0.11071932,0.3005457,0.07994699,0
746,3.7569857,3.6508338,2.1107512,-0.0035124752,-0.2443461,0.1379792,0
747,-1.9500135,0.64677984,4.57467,-0.0041233404,-0.30604348,0.00786489,0
748,-0.13473308,-0.044433787,-1.0820408,-0.15622878,0.22174409,0.036575556,0
749,1.2748727,-0.6735805,3.3466845,-0.26068676,0.5338962,-0.04466952,0
750,-0.015871167,-0.021241963,-0.91573524,0.12721269,0.23945917,-0.04772385,0
751,2.397728,-0.9538002,-0.21767521,0.0917825,0.0421497,-0.011682798,0
752,-0.63585943,-0.05680068,-0.010400772,0.15042557,0.022602014,-0.026343564,0
753,-1.6916411,-0.2929803,0.77341175,-0.11102476,-0.043982297,0.022525655,0
754,-0.6686629,-0.11819438,-0.5207367,-0.03772093,-0.18692477,0.05795584,0
755,-1.1386957,-0.70819426,0.5322027,-0.0926988,-0.031154128,0.029245174,0
756,0.20467746,0.16735001,-0.8474455,0.0154243475,0.034208454,-0.0019089539,0
757,-0.52797174,0.7152174,0.5639219,-0.0010690142,0.02443461,0.0023671028,0
758,0.5231525,-0.056920998,-0.8040571,-0.09086621,-0.13316862,-0.020845776,0
759,2.0298438,0.13727665,1.8362999,0.010537425,-0.10995574,0.043295074,0
760,0.3604846,0.25094134,-0.76760674,0.028863383,-0.05375614,0.002977968,0
761,0.4212333,-0.20362586,1.0210276,-0.009010263,-0.022602014,-0.031230485,0
762,0.98566043,-0.15524942,1.4816561,-0.012675454,-0.17592919,-0.055665094,0
763,0.8245877,-1.3209407,-0.98717594,-0.07192938,-0.11728613,-0.0129045285,0
764,0.6011497,-0.17144257,-0.17508602,-0.08109236,-0.031154128,0.01947133,0
765,-0.5805845,0.12290129,-0.5157614,0.05757405,0.014049901,0.0139735425,0
766,-0.52027,-0.90540755,-0.13289642,-0.025503624,0.035430185,0.022525655,0
767,-0.81705,-0.7115064,-1.5054827,0.09239337,-0.07452556,-0.045280386,0
768,-0.21791315,1.4503697,-1.1229887,0.00076358154,-0.106901415,-0.082543164,0
769,0.11096501,1.0730537,-1.1119652,0.012370021,-0.0012217305,-0.046502117,0
770,1.8904705,2.2008758,0.9779663,0.0154243475,-0.026267206,-0.014737124,0
771,0.7855171,0.4843234,-0.9157553,0.078343466,0.016493361,-0.03428481,0
772,1.6378938,0.58769655,0.65379524,-0.063988134,-0.15760323,0.026801713,0
773,0.8674443,1.1268228,0.16815472,0.11438452,0.18875736,-0.017180584,0
774,0.6279856,-0.14139277,-1.0604191,0.08750644,0.03970624,-0.07154759,0
775,1.5100772,-0.4309082,-0.22056484,-0.020005837,0.025045475,-0.0061850105,0
776,0.8548124,1.3337214,0.60793304,0.04841107,0.08979719,-0.050167307,0
777,0.69153607,0.4618103,-0.8381233,0.020922136,-0.047647487,-0.063606344,0
778,1.3582189,0.71492285,-0.48682976,-0.005955936,-0.13927728,-0.05138904,0
779,-1.1532524,-0.8735768,-1.1924944,0.0355829,0.047647487,-0.044058654,0
780,0.79808545,0.55775005,0.10797596,0.0154243475,0.08002335,-0.015347989,0
781,-1.0898349,-0.7003213,-0.7831478,0.063682705,-0.10140363,-0.048945576,0
782,-0.8431822,-0.71912116,-0.7299757,0.011148291,-0.10751228,-0.022678372,0
783,0.10569739,-0.0071522593,0.39944935,-0.095753126,-0.2144137,-0.030008756,0
784,-0.36718607,-0.12307185,-0.49077606,0.05390886,-0.0036651916,-0.019013181,0
785,0.8454958,0.2954898,0.64716053,0.026419923,0.019547688,0.0035888334,0
786,-0.10324788,-0.50328356,-0.6127205,-0.031612277,0.14782938,0.0463494,0
787,0.59498405,1.5135759,0.4396677,0.02397646,0.17470746,-0.010461068,0
788,-1.0138967,-0.13718832,1.4755201,-0.023060163,-0.06169739,0.017027868,0
789,-1.2283206,-0.920075,0.64609146,-0.012675454,0.0067195175,0.05245805,0
790,0.83114886,-0.43093342,-2.008409,0.001985312,-0.25717425,-0.03733914,0
791,0.67128694,-0.6592539,-0.3431692,0.014813482,0.06719518,-0.027565295,0
792,-1.0148406,0.4439211,0.06066513,0.05757405,0.051923547,-0.023289237,0
793,0.46640944,-0.3154415,0.2762413,-0.035277467,-0.026267206,0.018860465,0
794,-0.24198997,-0.812726,-0.85294724,-0.01572978,-0.045814894,-0.018402316,0
795,0.14589524,-0.9097456,1.3000374,-0.072540246,-0.10629055,-0.004352415,0
796,-0.4868939,-0.30482137,-1.545033,0.020922136,0.02076942,-0.022067508,0
797,-0.03621888,0.47531736,-0.97916794,-0.01817324,-0.06169739,0.0017562376,0
798,-0.6087843,-0.7126066,0.38837814,-0.0096211275,-0.004276057,0.0139735425,0
799,0.4197464,-0.2435649,-0.49759674,-0.058490347,-0.021991149,-0.02023491,0
800,0.24421191,-0.120862424,0.68965054,0.00076358154,-0.029932396,-0.050167307,0
801,1.31793,-0.4319393,-0.80733395,0.041691553,-0.06780604,-0.09476047,0
802,0.3231926,-0.12045938,0.4704485,-0.05299256,-0.048258353,-0.05138904,0
803,0.905571,0.31259358,0.6354456,-0.04138612,0.014049901,-0.04466952,0
804,0.32792473,1.586259,-0.96467495,-0.0035124752,-0.05375614,-0.03611741,0
805,0.79440093,0.82019806,-0.31635666,-0.07070765,-0.0030543262,0.008475755,0
806,-0.16548514,0.459767,-0.5085716,0.020922136,-0.1001819,-0.025121834,0
807,0.29052234,-0.7190565,0.5825901,0.009315695,0.020158553,-0.010461068,0
808,-1.6387607,-0.5999723,-0.2410202,0.037415497,0.004886922,-0.022067508,0
809,0.43029237,-0.33153903,-1.6048036,-0.09330966,-0.03848451,-0.03733914,0
810,0.46764922,-0.47108352,0.19433212,-0.007788532,-0.037873644,0.00908662,0
811,-0.116416216,0.9268086,-0.18876457,0.0013744468,-0.10873401,-0.028176159,0
812,0.8679004,0.118328124,0.6506748,-0.08964448,-0.02687807,0.08116872,0
813,-0.1332047,-0.5995698,0.013736725,-0.012675454,-0.040317107,-0.0012980887,0
814,0.19484568,0.24037611,-0.78142357,-0.051159963,-0.032375857,0.030466905,0
815,-0.40728128,0.6453661,2.315651,0.006872234,-0.014660766,-7.6358156e-05,0
816,-0.73033774,0.20964792,0.4177599,-0.02611449,-0.10262536,-0.01656972,0
817,0.8954891,-0.83327025,0.41571903,-0.03894266,-0.012217305,-0.015347989,0
818,1.0090055,0.30053306,-0.71794415,-0.024892759,-0.04337143,-0.027565295,0
819,0.5581958,0.8929088,-0.25698948,0.09911288,-0.02321288,-0.09048442,0
820,0.5602474,-0.22135934,-0.086488724,0.001985312,-0.051923547,-0.06849326,0
821,0.47908497,0.38714778,-0.7422972,-0.005955936,-0.06169739,-0.06727154,0
822,-0.50782526,0.30959845,-1.389576,0.022143865,0.021380283,-0.058108557,0
823,-0.060619116,1.0383645,-0.39978218,-0.0053450707,-0.054367006,-0.06421721,0
824,0.59433246,0.46698895,0.2372675,-0.017562376,0.036651913,-0.055665094,0
825,-0.8900999,-0.009154111,0.36369514,-0.02367103,-0.10873401,-0.0538325,0
826,-0.67011786,-0.21124357,-0.325428,-0.008399397,0.04642576,0.010308351,0
827,-1.7863259,0.79657066,1.183816,0.059406646,0.13316862,0.006032294,0
828,-1.0028317,-0.084103316,0.4748087,0.030695979,-0.035430185,-0.0061850105,0
829,-0.4526453,0.49958548,-0.49088192,0.010537425,-0.056199603,-0.051999904,0
830,-0.07169247,-0.28469113,0.5647507,0.028863383,-0.13500121,-0.017180584,0
831,0.58441234,-0.52870065,1.2217693,-0.0664316,-0.061086524,0.007254025,0
832,0.1596303,-0.7554307,-0.39417076,0.05207626,-0.015271631,-0.032452215,0
833,0.092927694,-0.8327563,0.18917656,0.07040222,0.02443461,-0.032452215,0
834,-0.8215089,-0.32282507,0.29121017,0.023365596,-0.07819075,-0.025121834,0
835,0.35149574,-0.34734565,-2.4485507,-0.11346822,-0.21135938,-0.041615196,0
836,-0.7623832,-0.43211946,1.7195873,0.008093964,-0.014660766,-0.0031306844,0
837,-0.33733845,-0.31745636,-0.37869263,0.054519724,-0.0580322,-0.031230485,0
838,0.51055336,-0.25113255,-0.5972948,-0.05177083,0.09407325,0.051236324,0
839,-0.6556679,0.5094374,-0.25769043,0.03863723,0.0720821,0.007254025,0
840,-0.63969946,0.5637192,1.2456675,-0.03283401,0.0012217305,0.0023671028,0
841,-1.1193348,-1.4371053,-0.10742664,-0.015118915,-0.03848451,-0.0031306844,0
842,-0.4099896,0.5615181,0.46254063,-0.051159963,-0.028099801,-0.004352415,0
843,-0.02943039,-0.7633216,0.18542194,0.019700404,0.032986723,-0.011682798,0
844,0.42658544,1.0920073,-0.6886234,0.06918049,0.017715093,-0.015347989,0
845,0.18511248,-0.23636219,-1.0988274,-0.0096211275,-0.027488936,0.008475755,0
846,0.12978458,-0.5995035,-0.24102402,0.0032070426,0.1020145,0.021303926,0
847,-0.45800614,0.5623195,1.1313906,-0.048716504,-0.04886922,0.006032294,0
848,0.503247,0.36993837,0.297884,0.001985312,-0.039095376,0.002977968,0
849,1.0279665,1.0395252,0.17161465,0.016035212,-0.017104227,0.0023671028,0
850,0.038298607,0.666308,0.2601738,-0.0035124752,0.016493361,0.0023671028,0
851,-1.1188501,-1.2311845,-0.55656147,-0.0346666,0.014660766,0.01947133,0
852,-0.22195911,-0.31998622,-0.50460243,0.0062613687,0.051923547,-0.00496328,0
853,0.54879665,-0.37316918,-0.077542305,-0.0096211275,-0.12034045,-0.014737124,0
854,1.495372,0.41174608,1.1210136,-0.007788532,-0.042760566,0.021303926,0
855,-0.7531837,-2.0831609,-1.6527739,0.055741455,-0.122783914,-0.053221636,0
856,0.7933061,-0.03100735,-1.3851261,0.019700404,0.004276057,-0.048945576,0
857,0.756737,0.92165613,0.76568985,0.016035212,0.032986723,-0.0037415496,0
858,-0.43991983,-0.23827341,-1.781662,-0.0096211275,0.01038471,-0.01656972,0
859,-0.23911238,-0.400227,-0.49924755,0.041691553,0.009773844,-0.026343564,0
860,0.6239016,-0.108246446,-0.3584547,-0.010842858,0.030543262,-0.047112983,0
861,-0.22850895,-1.3808988,-0.19467449,-0.026725354,-0.045814894,-0.10819951,0
862,0.46897292,-1.452389,0.040403366,0.029474247,-0.13927728,-0.25847235,0
863,1.9563429,-0.29397064,0.5665693,0.027641652,0.03359759,-0.18944459,0
864,2.1643002,0.7976549,0.7313318,-0.1049161,0.037873644,-0.13141239,0
865,2.0184214,0.16285774,1.730339,-0.1470658,0.10567969,-0.03733914,0
866,1.7246594,0.73781955,-0.32675552,0.063682705,-0.1704314,-0.1381319,0
867,0.48609018,0.8804449,-3.5061235,0.07223482,-0.21930063,-0.6659195,0
868,0.16987205,2.0486767,0.2231245,-0.01450805,-0.03176499,0.0139735425,0
869,-0.65288925,1.0186276,-2.8111267,0.004428773,-0.18387043,-0.10636691,0
870,-0.68940973,1.1755192,1.1365519,0.06246097,0.1001819,0.038408153,0
871,-0.7485621,1.5032233,1.4432259,-0.0071776668,-0.05497787,0.015806139,0
872,0.21232653,-0.24063233,-1.2898674,0.03313944,-0.08735373,-0.019624045,0
873,-0.7293618,-0.7353765,-1.0049925,0.033750303,0.029321533,-0.023289237,0
874,-0.69117785,0.43520227,0.8746109,-0.010231993,0.012217305,0.0011453723,0
875,-1.3314061,-0.6831166,0.52373505,0.009315695,0.03970624,0.027412578,0
876,-0.32146192,0.13128099,0.20300865,-0.011453724,-0.017715093,0.015806139,0
877,0.07925987,0.15681759,-0.5509596,-0.02855795,-0.11728613,0.01947133,0
878,-1.1942157,0.52881664,3.1850185,-0.0346666,-0.06352998,0.02985604,0
879,-2.3113582,-1.0247687,-1.4662175,0.0050396384,-0.020158553,0.006032294,0
880,0.18507719,0.5494617,-0.1304617,-0.0065668016,-0.017715093,-0.0037415496,0
881,-0.106411934,0.9484594,0.32917404,0.02397646,0.05497787,0.018860465,0
882,-0.84288025,-0.029188022,-0.28119278,0.06001751,0.12583824,0.008475755,0
883,-0.29205978,0.459046,-0.5545111,0.03680463,-0.02076942,-0.015958855,0
884,0.16410732,-0.37331712,-0.6734915,0.07895433,0.05009095,-0.028787024,0
885,1.0498002,0.9012263,0.94488144,-0.010842858,-0.06780604,-0.044058654,0
886,-0.0357399,-0.5789006,-0.6577425,-0.043829583,-0.04337143,-0.014126259,0
887,0.37119794,-0.3618141,1.0585642,-0.04138612,-0.021380283,-0.009850202,0
888,-0.11530566,0.64735144,-0.14977074,-0.04810564,-0.04337143,-0.020845776,0
889,0.15241456,1.7383956,2.039012,-0.09697486,-0.08002335,-0.010461068,0
890,0.963099,0.19402307,0.5767851,-0.012675454,0.07574729,-0.02695443,0
891,-0.5420327,-0.8160091,-0.074822426,0.04841107,0.016493361,0.018860465,0
892,-0.7264255,-1.2301133,-0.7528515,-0.0096211275,0.06047566,0.044516806,0
893,0.05282259,-0.22881794,0.33722782,0.014813482,0.080634214,0.017638734,0
894,-0.0049700737,0.4641918,0.31987,-0.023060163,-0.03481932,-0.042836927,0
895,0.28078532,0.090051174,0.5915613,-0.010842858,-0.04520403,-0.08865182,0
896,-0.13595057,0.18745938,-0.9081478,-0.14401148,-0.023823744,-0.07582365,0
897,2.3441248,0.5040796,1.712429,-0.12873985,0.13194689,0.071394876,0
898,1.3173828,-0.42055646,-0.26205635,-0.03283401,0.07086037,-0.19066632,0
899,1.6161833,2.1215892,1.5223227,0.0062613687,0.07513642,-0.19738583,0
900,-0.24895692,-0.8105042,-0.21813583,0.05085453,-0.002443461,-0.34949127,0
901,-0.41124964,-1.452285,1.0913582,-0.007788532,0.014049901,-0.1540144,0
902,0.9928241,2.514796,0.7272358,-0.023060163,0.09407325,-0.046502117,0
903,-1.8767126,-2.0262408,0.7123985,0.03191771,0.09590584,0.020082194,0
904,0.4097569,2.1200528,1.7623367,0.082619525,-0.064751714,-0.019624045,0
905,-2.416565,-0.56537867,2.4046516,-0.04016439,0.04337143,0.0182496,0
906,-1.1985048,0.34475386,2.8179007,-0.0065668016,0.01160644,0.015806139,0
907,-1.5792127,-1.9549663,-1.5891519,0.034972034,0.015882496,0.007254025,0
908,-1.9554365,1.7916133,1.8051109,-0.0016798794,-0.11178834,0.022525655,0
909,-1.5841078,1.0412526,1.6226139,-0.117744274,-0.004886922,0.029245174,0
910,-2.686767,-0.26607314,3.078846,-0.010842858,0.18142697,0.04268421,0
911,-1.1233793,-0.67834413,0.13965702,0.013591751,0.105068825,-0.00496328,0
912,-1.3444215,-1.1193674,0.3604355,-0.0016798794,-0.118507855,0.031077769,0
913,-1.1761224,-0.77823186,0.696002,0.016646078,0.13133603,0.045738537,0
914,-1.7316601,-0.95038414,-0.10813236,-0.04932737,-0.15577064,0.15325081,0
915,-1.6344773,-0.6447441,1.2066822,0.054519724,-0.015882496,0.10010554,0
916,-1.6454118,-1.4659209,1.3414555,0.07040222,0.018936822,0.08666651,0
917,-1.642293,-0.60170686,-1.2671633,0.00015271631,0.023823744,0.026190847,0
918,-0.789094,-0.043475434,-0.723526,-0.02367103,-0.13988814,0.0622319,0
919,-0.98752,-0.092484735,-0.3178196,0.10277808,0.11484267,0.081779584,0
920,0.41738105,-0.01581563,-0.22362709,0.045356743,-0.055588737,0.046960264,0
921,-0.9060594,0.5228156,-0.97780037,0.077121735,-0.02076942,-0.009850202,0
922,-1.1143024,1.2803574,-0.3092413,-0.03772093,-0.099571034,-0.060552016,0
923,-1.3889589,-0.5083616,-0.31637955,0.016646078,-0.014049901,-0.038560867,0
924,-1.1750665,-0.7127226,-0.008698463,-0.01817324,-0.040317107,-0.054443367,0
925,-1.4542642,0.43722063,0.43524933,-0.05299256,-0.18325958,-0.014737124,0
926,-1.0264989,-0.7705251,-0.5992422,-0.0664316,-0.03176499,-0.023900103,0
927,1.3039691,1.4073642,2.2061892,-0.04932737,-0.09590584,0.007254025,0
928,-1.6434488,-0.1535056,0.85464096,-0.021227567,0.029932396,0.02069306,0
929,0.08744979,0.71516687,0.815217,-0.063988134,0.15760323,0.024358252,0
930,-0.60225725,-0.46419936,-0.5116806,-0.08231409,-0.05681047,0.021303926,0
931,-0.13324142,0.33982992,0.84988594,-0.02733622,-0.050701816,-7.6358156e-05,0
932,0.2156558,-0.058944494,-0.30220318,0.012370021,-0.007330383,-0.0006872234,0
933,0.74117136,0.9396384,-0.53837204,-0.021227567,0.02565634,-0.022678372,0
934,-0.8237213,-0.1829179,0.70534706,-0.03283401,-0.092240654,-0.0061850105,0
935,0.27563393,0.8602148,-0.18126011,0.019089539,0.01038471,0.005421429,0
936,-0.5688418,0.33157626,-0.09989452,0.007483099,-0.028099801,-0.015958855,0
937,0.2837305,0.5471759,0.0992012,0.032528576,-0.09712757,-0.00496328,0
938,0.14793992,0.41691452,0.33879566,0.031306844,-0.04153884,0.0066431593,0
939,-0.24687171,0.18966982,0.21728802,-0.031612277,0.03970624,0.036575556,0
940,-1.3046564,0.894517,-0.3625164,0.0050396384,0.07086037,0.11904237,0
941,-1.7185764,-0.21150875,-1.0614395,-0.03772093,-0.031154128,0.14775303,0
942,-1.7594755,-0.8770875,-0.6062031,-0.069485925,-0.0580322,0.31085405,0
943,-0.74889266,0.29039565,0.06093216,0.04046982,0.007941248,0.08361218,0
944,0.60336876,1.5125134,-0.81393814,0.03863723,-0.069027774,0.015195273,0
945,-0.30998766,1.1479033,-0.43719196,-0.05665775,0.032986723,0.05673411,0
946,1.6197045,0.18361342,-0.2315979,0.051465396,0.07391469,0.031688634,0
947,0.41171062,-0.1767698,-0.6245642,0.05390886,0.04642576,-0.0006872234,0
948,0.7001283,0.07888436,0.43874168,-0.005955936,-0.022602014,-0.004352415,0
949,0.4987948,0.4043907,-0.39393997,0.010537425,-0.028099801,-0.031230485,0
950,0.5609641,0.7526165,-0.6458597,0.05207626,0.092240654,-0.047112983,0
951,0.1784277,0.11691794,0.05216503,0.014813482,0.092240654,-0.020845776,0
952,0.8763585,-0.65751237,0.43100452,-0.08597928,-0.01038471,-0.047112983,0
953,1.0290716,-1.0598958,2.4363527,-0.012064588,-0.028710667,-0.07338019,0
954,1.2787864,0.53546023,0.036623955,0.13332134,-0.016493361,-0.12347114,0
955,0.8211496,-0.29855976,0.5797281,0.012980887,-0.047647487,-0.08559749,0
956,-0.48321033,0.1946895,-0.26091957,0.012980887,0.02687807,-0.028176159,0
957,0.18583965,-0.009531289,0.6730442,-0.0346666,-0.009773844,-0.00496328,0
958,0.43719864,-0.60542566,1.2027025,-0.06704246,0.049480084,0.024358252,0
959,0.8248074,0.4792506,-0.5962744,-0.0010690142,0.030543262,-0.0092393365,0
960,-0.7552192,-0.271029,0.19511223,-0.047494773,-0.064751714,-7.6358156e-05,0
961,0.2688098,0.43664575,0.5243044,-0.035277467,0.0030543262,0.002977968,0
962,0.25881934,-0.21497312,0.944047,-0.07742717,-0.0030543262,0.00908662,0
963,-0.093703985,-1.5082253,0.5504761,-0.047494773,-0.037873644,0.006032294,0
964,-0.3516302,-0.22719339,-0.22546387,0.023365596,-0.055588737,-0.06604981,0
965,-0.005416155,0.57293844,0.10253048,-0.07376198,0.036651913,-0.027565295,0
966,1.0038338,-0.63604915,0.08699608,-0.037110064,0.02687807,-0.04589125,0
967,0.70077014,-0.43521798,-0.21644688,-0.071318515,0.07941248,-0.055665094,0
968,0.64851165,-0.14566678,0.3037138,-0.035277467,-0.12767084,-0.07276932,0
969,0.3094206,0.33549526,0.0735445,-0.043218717,0.08124508,-0.07276932,0
970,-0.12817478,-0.4488916,0.7418976,-0.0010690142,0.04642576,-0.086819224,0
971,0.012827158,-0.66252506,-1.0770645,-0.005955936,-0.03176499,-0.08315403,0
972,0.13339996,-0.37381345,0.24953175,-0.06154467,-0.020158553,-0.042836927,0
973,-0.6126785,0.0809478,-1.1274443,0.05024367,0.12095132,-0.0006872234,0
974,-0.44207907,-0.9701083,0.34475708,-0.022449298,0.06536258,-0.008017606,0
975,-0.9880626,0.47084612,-0.29314137,0.04046982,0.025045475,-0.007406741,0
976,-1.2130157,-0.1089139,0.310256,0.022143865,-0.056199603,0.026801713,0
977,-0.009904504,-0.031591415,-0.5983734,0.007483099,-0.09773844,0.026190847,0
978,0.6364769,2.2738323,1.3460016,0.041080687,-0.005497787,0.10010554,0
979,-1.2156482,0.34085906,0.2517872,0.042913284,-0.047647487,0.06528623,0
980,-0.19585133,2.034685,0.4168749,0.044745877,0.031154128,0.10377073,0
981,-0.9715093,0.6776272,-0.3838768,-0.010842858,-0.1423316,0.11049025,0
982,-0.420884,-1.1003197,1.1772575,0.028863383,0.14782938,0.10132727,0
983,-0.07666731,0.060513973,0.92182827,0.014813482,0.09712757,0.03901902,0
984,-0.24298453,-0.9406243,0.9821291,-0.05177083,0.015882496,-0.00496328,0
985,0.51627886,-0.09710498,-0.51405144,0.001985312,-0.07880162,-0.033673946,0
986,3.460945,0.33412617,-0.35953426,-0.07925977,0.1142318,0.006032294,0
987,-0.7949834,-1.0536178,3.0327854,-0.04627304,-0.0720821,-0.054443367,0
988,0.59974277,-0.4389522,1.4831171,-0.015118915,-0.032375857,-0.033673946,0
989,-0.049845815,0.1309028,-0.33901596,-0.029168816,-0.05497787,-0.06849326,0
990,1.0352476,0.56940544,-0.6775236,-0.012675454,-0.07269296,-0.099647395,0
991,0.41493106,-0.27109724,-0.16116905,0.0154243475,-0.007330383,-0.14851661,0
992,1.4145677,0.3887788,0.1234808,0.0050396384,-0.04153884,-0.1118647,0
993,0.86557174,-1.1967406,0.9044981,-0.020616703,-0.01160644,-0.088040955,0
994,-0.844187,-0.3103611,0.24124241,-0.04016439,0.18325958,-0.04466952,0
995,-0.43536854,0.5495569,2.7902308,-0.0041233404,-0.172264,-0.15523612,0
996,0.10414004,0.20133662,1.5349922,-0.030390546,-0.12156218,-0.07948884,0
997,-0.34915757,-1.2490311,-3.8254828,0.09483683,0.03726278,-0.045280386,0
998,-1.3925815,-0.67527676,0.26422024,-0.020616703,-0.055588737,-0.0031306844,0
999,-0.7382462,-0.58472365,-0.35796547,-0.059101213,0.19058995,0.0322995,0
1000,-1.7866954,0.48006263,0.5267334,0.0050396384,-0.1282817,-0.02023491,0
1001,-0.5083375,0.42952737,-0.32301426,0.0032070426,0.020158553,-0.0110719325,0
1002,-0.68196464,-0.5489793,0.7821474,0.0025961774,-0.081855945,-0.025732698,0
1003,-0.89662147,-0.28302214,-1.4763236,-0.024281893,0.028710667,0.058566704,0
1004,-0.4600656,-0.07799253,-0.07079029,-0.05299256,-0.0030543262,-0.03611741,0
1005,0.52455735,-0.28407782,-1.7639604,0.066737026,0.0018325958,-0.021456642,0
1006,-0.67088294,0.84231246,-1.6586041,-0.0047342055,-0.15149458,-0.10086913,0
1007,0.81731534,0.24751168,0.18594933,-0.06765333,0.11789699,0.05917757,0
1008,-0.60963774,0.37096137,0.5363989,0.019089539,0.055588737,-0.0019089539,0
1009,-0.19407701,0.5433287,-0.094353676,-0.012675454,-0.053145275,-0.0006872234,0
1010,-0.09431934,-0.28084219,-0.69957924,0.012980887,-0.21563543,-0.14057536,0
1011,1.1027882,0.33921474,1.9996471,-0.01695151,-0.09101892,-0.06666067,0
1012,0.46107125,0.11925569,0.717597,-0.031612277,0.02443461,0.005421429,0
1013,0.6245923,0.8543519,2.4978342,0.022143865,-0.07452556,-0.046502117,0
1014,-0.03508973,-0.30013746,-0.4509344,0.07467828,-0.03604105,-0.04589125,0
1015,0.7773435,-0.51126206,-0.8778868,-0.082924955,-0.058643065,-0.0092393365,0
1016,0.2938969,-0.5212779,-0.58337116,-0.04932737,0.095294975,-0.01656972,0
1017,1.2763681,-0.6096272,-1.564343,0.11071932,-0.032375857,-0.07399105,0
1018,0.39204073,1.676827,0.3252182,0.028252518,-0.015271631,-0.072158456,0
1019,0.013323069,0.2913311,0.2111845,-0.03772093,0.028099801,-0.020845776,0
1020,0.004032135,-0.5515652,1.1263771,0.06490443,-0.059864793,-0.06299548,0
1021,-0.57864535,-0.05820006,0.3536167,0.009315695,0.17104226,0.022525655,0
1022,-0.84091973,-1.0318019,-0.38201427,-0.020005837,0.13622294,0.10010554,0
1023,-1.1112888,-1.8305998,0.017074585,0.03680463,0.0036651916,-0.0110719325,0
1024,-0.31860435,-0.038667113,0.41254234,0.012980887,0.025045475,-0.0067958757,0
1025,-0.4632684,-0.71750695,0.77836037,-0.01695151,-0.051923547,0.022525655,0
1026,0.07568765,-0.99077904,0.9452877,-0.026725354,-0.009773844,0.011530082,0
1027,-0.32444918,-0.9085617,-0.36519527,0.08506299,0.06352998,0.0041996986,0
1028,-0.19855988,-0.45891804,-1.2663479,-0.0047342055,-0.035430185,0.01947133,0
1029,-1.5635288,1.0191752,0.42947388,0.00076358154,-0.13072516,0.034132097,0
1030,1.0316834,-1.6063662,1.8668804,-0.10308351,-0.17287487,0.048181996,0
1031,-0.6544714,-0.9395842,-1.5642805,0.014813482,-0.28955013,0.002977968,0
1032,0.43613315,-0.99568725,-0.08611393,0.06307184,-0.15393804,0.018860465,0
1033,-0.94532263,-0.20906377,0.44247913,0.030085113,0.2125811,0.10865766,0
1034,-1.437014,-2.7417195,0.7076912,0.120493166,0.39584067,0.13920091,0
1035,1.6600564,0.7221306,0.57489586,0.049021937,0.13622294,0.08544478,0
1036,0.23064363,-0.6538974,-0.32421684,-0.025503624,0.2883284,0.15141822,0
1037,-0.20353615,-0.5653539,0.6320343,0.059406646,0.092240654,0.094607756,0
1038,0.11077726,0.558607,-1.0573921,0.042913284,-0.12034045,0.11415544,0
1039,-0.6596614,0.6802355,-1.1388407,-0.14340061,0.0,0.17402023,0
1040,-0.12636662,1.3175182,-1.4076958,0.052687127,-0.045814894,0.14592044,0
1041,-0.28310752,1.2159588,-2.2954235,0.027030786,-0.052534413,0.09705122,0
1042,0.48923945,-0.8232906,-1.8737097,-0.059101213,0.1020145,-0.018402316,0
1043,0.8251127,2.759142,2.0494833,-0.082924955,0.13072516,-0.025121834,0
1044,1.2067044,3.1695592,-0.26472378,0.022143865,-0.089186326,-7.6358156e-05,0
1045,1.157718,2.2547152,1.4291716,-0.106137834,0.08674286,0.10010554,0
1046,0.011557102,-0.73075366,-0.46395206,-0.05177083,-0.13316862,0.01947133,0
1047,-0.93155485,1.4298381,2.4605646,0.024587326,-0.118507855,0.04268421,0
1048,0.083642006,-0.3354698,-1.2908812,0.08628472,0.28221974,0.11598804,0
1049,-1.2636226,-0.48628935,0.30144215,0.036193766,-0.03359759,0.034132097,0
1050,0.36969888,0.34934187,0.44854355,-0.007788532,-0.19242255,-0.025732698,0
1051,1.1194128,-0.6524409,-1.568675,0.014202617,0.09407325,0.010308351,0
1052,0.351197,0.22122414,-0.31466866,-0.051159963,0.1160644,0.021303926,0
1053,0.7025583,-1.4865801,-0.8857918,-0.019394971,0.08124508,-0.00496328,0
1054,0.9193865,-3.1711493,-0.15273952,-0.10980303,-0.04337143,-0.10514518,0
1055,1.1273081,0.17936544,-1.0286589,0.0355829,-0.053145275,-0.10331258,0
1056,0.74680364,-0.63874984,-0.6953335,0.014813482,-0.29749137,-0.17295122,0
1057,1.6697543,-0.77294254,-0.9539709,0.016035212,0.007330383,-0.053221636,0
1058,2.59615,0.323019,-0.8060026,0.05513059,0.31398472,-0.007406741,0
1059,-0.34550655,-1.6460166,0.98339844,-0.0010690142,-0.043982297,-0.06116288,0
1060,1.5003293,-0.7748499,-0.15638256,0.022143865,-0.06536258,-0.07032586,0
1061,1.0580661,-0.9196763,0.362175,0.14248432,0.19608775,-0.014126259,0
1062,1.4945731,-0.37236667,-1.8477144,-0.012064588,0.11056661,-0.0538325,0
1063,0.17629099,-0.7836546,0.6651602,-0.035277467,-0.0036651916,-0.06543894,0
1064,1.1866953,-0.04434204,-1.0354071,0.03313944,0.10140363,-0.07582365,0
1065,1.0823703,-0.12821034,-1.0381184,0.06001751,-0.13805555,-0.16256651,0
1066,1.1850657,1.0269911,-1.0372524,-0.034055736,-0.02565634,-0.13080151,0
1067,0.6813855,0.9025505,-0.28977585,0.006872234,0.09407325,-0.044058654,0
1068,0.33663034,0.82858044,1.275094,-0.0071776668,0.09162979,0.010919216,0
1069,0.7153151,-0.35674316,-1.111206,-0.024892759,-0.015271631,0.021914791,0
1070,-1.3095269,-1.8079691,0.26051617,-0.00045814895,-0.089186326,0.0048105638,0
1071,0.30322576,-0.56115586,-0.08185482,-0.043218717,0.004886922,0.024358252,0
1072,-0.46892464,0.15208974,4.95432,-0.1085813,-0.25961772,-0.11675162,0
1073,-0.0043052435,-2.2636948,-0.684885,-0.030390546,-0.17959438,-0.054443367,0
1074,1.5619663,1.1238903,0.35000515,-0.012064588,-0.062308256,0.061010167,0
1075,-0.09408331,1.1897558,0.58381844,-0.024892759,-0.07147124,0.07383834,0
1076,-1.6895293,0.120891616,0.08724594,0.00076358154,0.004276057,0.102549,0
1077,-1.2775872,-0.65250987,1.0343485,-0.024281893,0.2828306,0.18073976,0
1078,-1.3442408,-1.1271638,0.0281353,0.0795652,-0.007941248,0.10865766,0
1079,-1.4422381,-0.2453459,0.2981825,0.014813482,-0.06047566,0.17340937,0
1080,0.025551438,-1.2180794,-0.75332737,0.10888673,0.022602014,0.1465313,0
1081,-0.021017909,0.14100179,0.07687855,0.041080687,-0.13805555,0.05673411,0
1082,0.5482094,0.03599286,-0.6234894,-0.0346666,0.004886922,0.08116872,0
1083,0.73039603,0.73774827,-0.6032219,-0.015118915,0.07086037,0.10804679,0
1084,-1.2864611,-0.3708721,0.9278736,-0.01817324,-0.070249505,0.14530957,0
1085,-2.004478,-0.86932564,0.308753,0.001985312,-0.06536258,0.123929285,0
1086,0.110842705,2.8868773,-0.88996315,-0.041996986,-0.04642576,0.08116872,0
1087,0.014241099,-0.70649225,-0.11429119,0.028252518,0.119729586,0.112322845,0
1088,0.42063975,-0.46965098,-0.3346529,0.027030786,0.064751714,0.077503525,0
1089,0.40342987,2.012217,0.14046955,0.0038179078,0.022602014,0.09399689,0
1090,-0.5196815,0.647765,-0.5555992,-0.010231993,-0.025045475,0.1043816,0
1091,-1.0901974,-0.10204399,-0.55255795,0.089949906,-0.06414085,0.081779584,0
1092,0.8672694,0.6048054,-0.8428879,-0.013897184,0.05009095,0.077503525,0
1093,0.8484063,0.33398902,0.85575676,-0.055436023,0.11362094,0.038408153,0
1094,1.2842212,-0.22682554,0.64806175,-0.018784106,-0.13194689,-0.07887798,0
1095,0.6044936,-0.8993468,-0.38110542,-0.010842858,-0.021991149,-0.14424056,0
1096,2.11013,0.42405134,-0.79835796,-0.033444874,0.009773844,-0.056886826,0
1097,-0.530815,0.35949582,1.2308912,0.014202617,-0.19914207,-0.20227276,0
1098,1.8747315,0.52831674,0.24671555,-0.04932737,0.092240654,-0.09903653,0
1099,1.2328458,-0.4267766,1.2081814,-0.0041233404,0.06536258,-0.13446671,0
1100,0.5346775,-1.0542115,0.054468155,-0.09636399,-0.12339478,-0.10209085,0
1101,0.72977734,-0.2727911,-1.511199,-0.068264194,0.09101892,-0.061773747,0
1102,1.1505067,-0.81875694,2.1811886,-0.00045814895,0.10262536,-0.09476047,0
1103,0.0595212,-0.6503574,0.75940895,0.053297993,0.16126843,-0.011682798,0
1104,0.27685142,1.1094775,0.23948956,-0.017562376,0.021380283,0.015806139,0
1105,-0.7411281,-1.0397905,0.28425884,0.045356743,-0.07086037,-0.0019089539,0
1106,-0.76658607,0.5522479,-0.42137337,0.041691553,-0.053145275,0.0017562376,0
1107,-0.55788076,-0.62981874,-1.4072456,0.05085453,0.05131268,0.00786489,0
1108,-1.5686687,-0.263351,-2.09023,0.045356743,-0.029321533,-0.03611741,0
1109,-0.9216973,-0.9808639,1.4710121,-0.14340061,0.10445796,0.113544576,0
1110,-0.12730014,-0.08631774,0.3479681,-0.01450805,-0.034208454,0.034742963,0
1111,-0.9308912,0.70443946,-0.1524868,-0.007788532,0.089186326,0.024969118,0
1112,-0.4367969,1.2235074,0.40111923,-0.009010263,-0.10567969,-0.012293663,0
1113,-0.19859195,-0.11056495,-1.098547,-0.03283401,0.008552114,0.017638734,0
1114,0.7587905,-0.3428121,-0.058475494,0.12965615,0.015882496,-0.06116288,0
1115,-0.38062322,-0.3981898,-0.030566216,0.010537425,-0.24373524,-0.06666067,0
1116,0.04390955,-0.65232724,-0.65949154,-0.013286319,0.08979719,0.002977968,0
1117,0.102231026,-1.0334383,1.2207136,-0.0022907446,0.014660766,-0.040393464,0
1118,0.33020115,-0.53028727,0.09335995,-0.04627304,0.014660766,-0.04589125,0
1119,0.7379894,-0.3134189,-0.4939623,0.054519724,0.026267206,-0.061773747,0
1120,1.0082498,-0.6748872,-0.39862633,-0.0926988,0.037873644,-0.036728274,0
1121,0.27969265,-0.7094449,0.1355133,-0.07498371,-0.04886922,-0.09720393,0
1122,1.1629729,-0.15059762,0.15293789,0.03924809,-0.022602014,-0.12835807,0
1123,0.18901396,-0.084457204,-0.30436993,-0.068264194,-0.012217305,-0.09659307,0
1124,0.67051005,0.3267001,-0.8788805,0.014813482,0.01160644,-0.11797335,0
1125,1.0731578,0.010226868,-0.65871906,0.00015271631,-0.08307768,-0.14607315,0
1126,0.82358956,-0.41157407,-1.0379219,-0.065209866,-0.12522738,-0.1259146,0
1127,1.5488696,0.043822996,0.62732124,-0.04505131,0.054367006,-0.040393464,0
1128,-0.7943088,-1.1660376,0.94157887,-0.045662176,-0.13316862,-0.098425664,0
1129,-0.47309875,-0.15878032,-0.119464874,0.007483099,0.057421334,-0.0055741454,0
1130,1.2037005,1.5089849,0.5953846,-0.02367103,-0.007941248,-0.007406741,0
1131,-0.008668184,-1.3679628,0.6250706,-0.01695151,0.04520403,0.012140946,0
1132,-0.53663373,-0.32655418,0.18494797,-0.030390546,-0.03726278,-0.0037415496,0
1133,-0.035609722,-0.40013638,-0.16296864,0.025198191,-0.1001819,-0.022067508,0
1134,0.170048,-0.49858943,-1.5398288,-0.009010263,0.017715093,-0.009850202,0
1135,0.69331336,-0.21654738,1.2485962,0.0355829,0.15271631,0.04390594,0
1136,-0.5670364,-0.04540442,0.13901806,0.0038179078,0.005497787,0.0023671028,0
1137,-0.14481401,-0.64049196,-0.08941746,-0.04444045,-0.06780604,0.00786489,0
1138,-0.4956057,-1.3873625,0.01831913,0.05085453,0.09101892,0.014584408,0
1139,-0.21027064,0.48627305,-0.92797947,-0.010842858,-0.09101892,-0.015958855,0
1140,0.42384624,0.18572775,0.9901457,0.034972034,0.0421497,-0.0092393365,0
1141,0.44429326,1.1985954,-1.2287016,-0.005955936,0.026267206,0.012751812,0
1142,-0.44598484,-0.09577188,0.90321064,-0.038331795,-0.10995574,-0.03733914,0
1143,0.4616115,0.7122698,-1.0317373,0.0062613687,-0.022602014,-0.019013181,0
1144,-0.67962885,0.26318026,0.72238445,0.023365596,0.11301007,0.026801713,0
1145,-0.5889609,0.07021825,0.07154846,-0.031612277,-0.039095376,0.0041996986,0
1146,-0.42455053,-2.3963048,0.042830467,0.063682705,0.052534413,0.00908662,0
1147,-0.98061764,-0.7911259,-0.17374802,0.023365596,0.040927973,0.024969118,0
1148,-0.07882285,-0.68992335,0.21474934,-0.02855795,0.013439035,0.024358252,0
1149,-0.8845582,-0.07254003,0.5419483,0.027030786,0.02687807,0.05551238,0
1150,-0.81912994,-0.11243802,0.63041687,0.06490443,0.1386664,0.078725256,0
1151,-1.374251,-0.887112,-0.30811405,0.02031127,-0.049480084,0.059788436,0
1152,-1.5809915,-0.76672244,1.0618677,0.022143865,-0.03604105,0.07322747,0
1153,-1.3302281,-0.6939678,-0.6449747,0.056352317,-0.12522738,0.022525655,0
1154,-0.3873763,-0.45595166,0.91111755,0.032528576,-0.045814894,0.06772968,0
1155,-0.29089546,0.6515271,-1.5192761,0.049632803,0.13072516,0.097662084,0
1156,-0.46823466,-0.80893874,-0.5447273,0.039858956,0.054367006,0.049403727,0
1157,-0.11808729,0.6653786,0.34733295,-0.010842858,-0.02076942,0.014584408,0
1158,0.036653996,-0.4173763,0.81667614,0.036193766,0.08002335,-0.030008756,0
1159,0.6850972,0.6814937,-0.54950047,-0.06154467,-0.054367006,-0.09903653,0
1160,1.1562908,0.8725241,0.4285841,-0.018784106,0.05681047,-0.06421721,0
1161,0.55636644,1.094665,0.0680666,0.009315695,-0.02687807,-0.13263412,0
1162,-0.8386706,-0.29212078,-0.1641016,-0.05971208,-0.0018325958,-0.10392345,0
1163,1.5044103,0.23962182,-0.79678726,-0.02977968,0.058643065,-0.072158456,0
1164,0.29361963,0.035973236,-1.7182331,-0.035888333,-0.172264,-0.14973834,0
1165,1.1311717,0.7547516,-1.6180682,0.041691553,0.10995574,-0.10209085,0
1166,1.5162072,0.30381432,-1.3088751,0.061850104,0.10995574,-0.11369729,0
1167,2.2017384,1.234191,0.13417244,-0.063988134,-0.017104227,-0.12102768,0
1168,0.77852297,-0.6421204,-0.76962566,-0.056046885,-0.16187929,-0.18516853,0
1169,1.0389175,-0.4486155,0.51570225,-0.04260785,-0.002443461,-0.1295798,0
1170,0.48729658,0.19024956,0.18029213,0.00015271631,0.02321288,-0.17050776,0
1171,1.6566229,-0.79908437,-0.7770519,-0.059101213,-0.036651913,-0.17967074,0
1172,1.7419918,0.26773882,0.25257206,-0.019394971,-0.020158553,-0.18822286,0
1173,1.17507,-0.109170526,-0.96834946,-0.033444874,0.1160644,-0.12102768,0
1174,0.3390789,-0.2914169,0.077337265,-0.056046885,0.07880162,-0.022067508,0
1175,-1.1148489,-0.6245835,-0.027485847,-0.0041233404,0.077579886,-0.0025198192,0
1176,-0.4510193,-1.8569391,-0.051707268,0.008093964,-0.096516706,-0.07582365,0
1177,-1.0254228,-2.6281786,0.09815025,0.0154243475,0.14905111,-0.032452215,0
1178,0.067602396,-2.5316179,-0.7811804,0.00015271631,-0.037873644,-0.102701716,0
1179,0.9708934,-0.8836706,-2.7576137,0.18463401,0.3005457,0.0048105638,0
1180,0.02435255,1.0141785,-2.110375,-0.015118915,0.30543262,-0.007406741,0
1181,0.6252091,-0.28649002,0.4580059,0.07651087,-0.13255776,-0.060552016,0
1182,0.100611925,0.22022732,-0.056825638,-0.06093381,0.4465425,0.16668986,0
1183,-1.2919203,0.49324006,-0.010629654,0.019089539,0.05497787,0.4263076,0
1184,-1.9819994,-0.6389271,0.929656,0.020922136,0.021380283,0.48006374,0
1185,-2.784989,-0.79903483,1.1769962,0.123547494,-0.031154128,0.564974,0
1186,0.015489757,-0.43333888,0.65505695,0.10827587,0.00061086525,0.6309474,0
1187,-0.10520083,-0.7212628,0.783494,0.13820826,-0.0036651916,0.63278,0
1188,-0.50717926,-1.3859261,0.045160294,0.11499538,-0.073303826,0.64316475,0
1189,0.29674506,-0.30571723,-0.28483677,0.11499538,-0.07391469,0.56802833,0
1190,0.91532755,-0.42987752,-0.23488045,0.085673854,-0.0030543262,0.4208098,0
1191,0.21982825,0.008598089,0.26630402,0.06490443,-0.05131268,0.36033413,0
1192,0.5362017,0.15464354,-0.40505886,0.06001751,0.3378085,0.14897476,0
1193,1.5134537,0.5931251,0.039235115,0.025198191,0.28710666,0.04757113,0
1194,1.4279515,1.9860052,0.35996914,0.071013086,-0.5503896,0.26565003,0
1195,-0.8206722,2.5565991,-0.61759853,-0.031612277,-0.86559606,-0.96218914,0
1196,-0.016870737,1.1715735,0.6037922,0.25366178,0.6921103,0.53748506,0
1197,2.4888644,-1.0012624,0.4321432,0.14004086,-0.08002335,0.051847186,0
1198,-0.6803379,-0.04829955,-3.298533,-0.16905695,-0.3830125,0.21739167,0
1199,0.5633526,1.2347066,-0.7295122,0.22678372,-1.2907583,-0.30917418,0
1200,4.933154,-2.9460795,-0.5215621,0.22678372,-1.2907583,-0.30917418,1
1201,2.3970966,2.6750638,-3.0067048,0.014202617,0.009162978,0.054901514,1
1202,-0.14744043,0.042525113,0.12718773,0.017256944,-0.0030543262,0.07506007,1
1203,0.08691335,0.36009634,0.52054214,0.066737026,-0.007941248,0.16607898,1
1204,-1.1222702,1.0588378,1.1569757,0.088728175,0.0,0.38171443,1
1205,-2.3459933,1.8451544,-0.35708904,0.19501872,-0.14905111,0.5209917,1
1206,-2.3490958,-0.3117493,0.4684677,0.071013086,0.04520403,0.39209914,1
1207,-0.80549514,0.9258895,-0.7268076,-0.010842858,-0.100792766,0.098883815,1
1208,-1.3858209,-1.4002728,2.3459988,0.04230242,-0.22235495,-0.01656972,1
1209,0.4490471,1.1195741,1.0929928,0.025809057,0.0030543262,-0.14301883,1
1210,1.3141806,-0.4459901,0.67918015,-0.02977968,0.04886922,-0.13385585,1
1211,0.34996748,-0.27857393,-0.3148222,0.07284568,0.014660766,-0.06299548,1
1212,0.4279709,-1.3410674,0.23682213,-0.031612277,-0.017104227,-0.025732698,1
1213,-0.5127404,-0.96300614,0.5778246,-0.055436023,-0.064751714,0.010919216,1
1214,-0.69294643,-1.2386423,-0.025651932,0.061239243,-0.073303826,0.09277516,1
1215,-0.03834319,0.6300885,0.16882133,0.016035212,-0.10140363,0.123929285,1
1216,0.9135362,0.26838923,0.3909006,0.034972034,0.025045475,0.061621033,1
1217,0.3537147,-0.20214415,-0.24418926,-0.0047342055,0.0842994,0.10987939,1
1218,0.09150833,-1.2763027,-0.51745224,0.056963183,0.04153884,0.11293371,1
1219,1.053682,-0.18578833,1.6390381,0.016035212,0.0012217305,0.14469871,1
1220,-0.68784297,-0.25782818,1.4398193,0.046578474,0.06352998,0.17524196,1
1221,-0.73779047,0.6672817,0.25414371,0.017256944,-0.019547688,0.15813774,1
1222,-0.05156353,1.1686883,-0.023550034,0.060628377,0.014660766,0.18562667,1
1223,-0.8580096,0.3717894,-0.9527216,0.00992656,-0.058643065,0.17096591,1
1224,-0.7279693,-0.8975422,0.44747257,0.08017606,-0.03176499,0.12942708,1
1225,-1.423011,-1.219429,-0.88558006,-0.01817324,-0.061086524,0.10682506,1
1226,0.1896205,0.11408794,0.008388519,-0.32238412,-0.6603453,0.12331842,1
1227,-0.2191664,-1.4960496,-0.5122204,0.0032070426,-0.047647487,0.075670935,1
1228,0.74259686,-1.0413811,0.42638397,-0.00290161,0.018325957,0.05795584,1
1229,-0.0027484894,-0.7756457,2.337782,0.025809057,-0.07574729,-0.05627596,1
1230,0.485013,0.7731531,-1.0256262,0.00870483,-0.040317107,-0.06849326,1
1231,-0.14556885,-0.9049087,-0.63170624,0.010537425,-0.01038471,-0.08071057,1
1232,-0.05048275,0.017096534,-1.1174922,-0.012675454,-0.20463985,-0.19433151,1
1233,0.18528461,-2.137889,0.13710213,-0.08659015,-0.027488936,-0.20593795,1
1234,-1.5296624,-1.1439502,-0.19689465,-0.008399397,0.08307768,-0.00496328,1
1235,-0.8928057,0.37232095,1.4253731,-0.033444874,0.02565634,0.007254025,1
1236,0.8456969,-0.33443695,0.595294,-0.04016439,-0.087964594,0.0023671028,1
1237,-0.9929393,-0.43409896,0.38933182,-0.01817324,0.008552114,0.0048105638,1
1238,1.4454429,0.08674666,0.6754675,-0.017562376,0.014660766,-0.048945576,1
1239,0.5455203,0.19482458,-0.65019226,-0.035888333,-0.026267206,0.029245174,1
1240,0.006242156,-1.743127,0.08949566,-0.024892759,0.01038471,0.032910366,1
1241,-0.12760854,-2.4735255,0.7583132,0.00076358154,-0.021380283,0.007254025,1
1242,0.44688582,4.245151,0.6169777,0.04230242,0.08307768,0.009697486,1
1243,0.09298968,0.54208815,-0.7217827,0.03436117,0.070249505,-7.6358156e-05,1
1244,0.04341948,-0.025247455,-0.5935974,0.01786781,-0.021380283,-0.011682798,1
1245,1.0281973,0.3825208,1.8312244,0.061239243,-0.03848451,-0.0019089539,1
1246,0.21077204,0.053487718,-0.49776363,0.027030786,0.023823744,-0.009850202,1
1247,-1.2056757,-1.0763421,-1.3311529,0.030695979,0.02687807,-0.008017606,1
1248,-0.416489,1.7567708,0.5092516,0.012370021,-0.016493361,-0.0037415496,1
1249,-0.8908137,-0.75663733,0.75165176,-0.060322944,0.09162979,0.020082194,1
1250,-0.61343217,-0.3204998,1.08284,-0.023060163,-0.14172074,-7.6358156e-05,1
1251,0.072360754,-1.6373024,-1.009944,-0.14156802,-0.35308012,-0.03611741,1
1252,0.30371165,-1.9082879,-0.13003063,0.0038179078,0.035430185,0.06956228,1
1253,-0.19964838,-0.12601101,0.43118954,0.051465396,0.08002335,0.06956228,1
1254,-0.82311094,1.4953158,-0.7472677,0.044745877,-0.08674286,0.08055785,1
1255,-3.287811,0.13583837,-0.24777412,0.025198191,0.005497787,0.116598904,1
1256,-0.5965755,-0.25484246,0.29622936,0.105832405,0.06841691,0.09827295,1
1257,-3.0195973,-0.98213637,-0.4681778,0.13637567,0.044593163,0.1501965,1
1258,-1.2231386,0.13677186,0.2957487,0.044745877,0.0012217305,0.156916,1
1259,-0.3346062,-0.58534986,0.6531544,-0.023060163,0.008552114,0.13492486,1
1260,1.0341476,1.1366434,-0.25066566,-0.12996158,0.5155703,0.09582949,1
1261,1.4989209,-2.1057892,2.480894,-0.034055736,0.18142697,0.031077769,1
1262,1.7110636,-3.1341352,-1.1514759,0.016035212,0.030543262,0.015806139,1
1263,1.1163368,-3.3576486,-2.7000518,-0.039553523,-0.07696902,-0.04589125,1
1264,2.129252,-3.494373,-0.13287163,-0.062155537,-0.108123146,-0.008628472,1
1265,2.3416462,-2.9855623,-0.7221508,0.0032070426,0.0061086523,-0.022067508,1
1266,2.0767155,0.17628181,-1.776144,0.036193766,-0.0061086523,-0.04344779,1
1267,0.06365883,-1.3254306,-0.5177145,0.089949906,-0.0012217305,-0.0006872234,1
1268,-1.6395073,0.22371605,-3.9884973,0.011148291,-0.030543262,-0.018402316,1
1269,1.535208,4.058062,-1.5934134,0.12721269,0.01160644,-0.056886826,1
1270,0.4467299,-0.33523434,0.5686674,-0.031612277,0.002443461,-0.014126259,1
1271,0.22797513,-0.39392185,0.44565296,-0.010842858,-0.10751228,-0.07826711,1
1272,-0.049170017,-0.5741543,-1.5617304,-0.058490347,0.05681047,-0.08498663,1
1273,0.35753214,-2.124141,0.48359776,0.05207626,0.07269296,0.036575556,1
1274,0.68341494,-1.6282524,-0.64326,-0.075594574,-0.06719518,0.08544478,1
1275,-0.7427925,-0.11127058,0.56572723,0.113162786,-0.06414085,0.086055644,1
1276,-1.5538123,0.056998193,0.30523968,-0.02367103,0.12034045,0.21189389,1
1277,-2.7992036,-0.6846703,-0.6576443,0.12843442,-0.10323623,0.15263996,1
1278,-3.168629,-0.3113255,0.8332386,0.044745877,0.06536258,0.20273091,1
1279,-2.1692958,-0.11663723,-0.18076515,0.19440787,-0.05681047,0.15630515,1
1280,-2.1210093,0.29532993,0.032649994,0.037415497,0.0012217305,0.13492486,1
1281,0.14335412,0.029583544,-0.65414333,0.00015271631,0.035430185,-0.004352415,1
1282,1.0625885,-0.89369357,0.7521429,0.027030786,-0.19792034,-0.13568844,1
1283,2.3298612,-0.3129476,-1.8775849,0.15592335,0.15699236,-0.23403774,1
1284,3.7126846,-0.52176225,-0.28956985,-0.013897184,0.087964594,-0.20410535,1
1285,3.1058762,-0.028666437,-1.1536245,0.03191771,0.02687807,-0.17111863,1
1286,1.9459128,-0.6871075,-1.5684175,-0.10797043,-0.056199603,-0.1698969,1
1287,1.8580182,-0.51278764,2.1120691,-0.00290161,-0.1160644,-0.23525947,1
1288,2.8162384,0.242767,-2.3285465,-0.23197608,0.0983493,-0.10514518,1
1289,2.1700854,1.0297749,1.4741421,-0.28145617,-0.52106804,-0.26091582,1
1290,4.157132,1.5080249,-0.55947113,-0.10919216,-0.32620203,-0.27130052,1
1291,3.552785,-0.82469946,-0.8685589,0.20234911,0.06414085,-0.31772628,1
1292,1.897265,1.0829179,-0.46045208,-0.024892759,0.13072516,0.16119206,1
1293,-1.5290136,1.0389088,1.6061773,0.0032070426,-0.031154128,-0.008628472,1
1294,-0.37024605,0.41366655,0.19444656,-0.022449298,-0.12644911,-0.0092393365,1
1295,-0.6937938,-1.4096346,-1.9698648,-0.10125092,-0.028710667,0.023747386,1
1296,-0.51066995,-0.85383266,-1.2193108,-0.052381694,0.027488936,0.0182496,1
1297,0.29948235,-0.84446543,0.7209215,-0.01572978,0.05131268,0.051847186,1
1298,-2.8704789,-0.55867314,0.15956497,0.012370021,0.0580322,0.08361218,1
1299,-0.37338135,0.2580794,-0.60418606,0.06612616,-0.007941248,0.04024075,1
1300,-1.0805393,-0.65024686,-1.6142826,-0.098807454,-0.19486602,0.025579982,1
1301,-0.6778293,-3.7300625,-0.7117462,-0.01572978,-0.12767084,0.12270755,1
1302,-0.25476688,-1.8989587,-0.10117149,0.013591751,0.040317107,0.15813774,1
1303,-1.5332382,-2.3707972,0.6268177,0.07284568,-0.08124508,0.038408153,1
1304,0.14853239,-1.2849126,-1.8341627,0.039858956,0.0030543262,0.10377073,1
1305,0.8031792,1.449213,0.30187607,0.00870483,-0.050701816,0.097662084,1
1306,-0.40862173,1.7014275,1.0650682,-0.015118915,0.03359759,0.117820635,1
1307,-1.0405432,0.3540479,-0.4815321,0.08323039,-0.0030543262,0.06650795,1
1308,0.8103225,1.1014452,-0.47763443,0.004428773,0.03604105,0.065897085,1
1309,0.34126294,0.05971235,0.14809799,0.082619525,-0.02687807,-0.038560867,1
1310,0.35698867,-0.008573189,0.43218517,0.088728175,-0.06719518,-0.06666067,1
1311,-0.11699581,-0.86732984,-0.7883568,-0.04260785,0.03848451,-0.055665094,1
1312,-0.93830514,-1.1339355,0.5764408,-0.050549097,-0.03970624,0.00786489,1
1313,-0.13946629,-0.17544878,0.13732529,-0.08109236,-0.03848451,-0.051999904,1
1314,0.53304935,-1.0302153,-0.47817612,-0.01450805,-0.1966986,-0.178449,1
1315,0.2713225,-2.100177,-7.143998,-0.057268616,-0.32620203,-0.22731823,1
1316,1.8799226,-0.5767874,-3.4677734,-0.0041233404,-0.05375614,-0.12041681,1
1317,-1.5916799,1.1016989,-2.4697351,-0.10919216,-0.010995574,-0.1643991,1
1318,1.517488,1.1316099,1.4119263,-0.094531395,-0.12034045,-0.10209085,1
1319,-0.035986423,0.5330645,-1.499918,-0.1470658,-0.09712757,-0.0110719325,1
1320,1.4412134,0.37190998,-1.3363314,0.03680463,0.0720821,-0.10819951,1
1321,2.3300555,0.3434502,-0.07564354,-0.035277467,-0.06169739,-0.15462527,1
1322,1.7155428,0.55796635,-0.6685381,0.014202617,0.03176499,-0.086819224,1
1323,-1.4935509,-0.20946038,-0.02102375,-0.0010690142,0.00061086525,0.036575556,1
1324,-0.071065664,0.059405506,-0.15721798,0.049021937,-0.065973446,-0.01779145,1
1325,-0.7114564,-1.5197556,0.27161312,-0.005955936,0.14660765,0.012751812,1
1326,-0.04023862,-0.8266994,-0.16446114,-0.14767668,-0.17959438,-0.041615196,1
1327,-1.3797278,-0.75483006,-1.7930269,-0.0035124752,0.018936822,-0.024510968,1
1328,0.07877898,-4.6997952,-0.47758102,0.10094548,0.1704314,-0.04100433,1
1329,-1.182549,-3.7053783,-1.5712113,0.082619525,0.047036625,-0.072158456,1
1330,0.2084353,-1.2599003,1.6534023,-0.10186178,-0.21624629,0.046960264,1
1331,-1.2637064,-2.6159873,-0.03010273,-0.035277467,0.044593163,-0.013515393,1
1332,-0.0868597,-0.021889508,0.43135738,0.04841107,0.014049901,-0.028787024,1
1333,-0.9859482,0.24473265,-0.07324028,0.039858956,0.055588737,0.041462477,1
1334,-1.1734124,-0.772667,-0.013132095,0.10705414,-0.17959438,0.007254025,1
1335,-1.3149033,2.2784572,0.46203423,-0.020005837,-0.03848451,0.074449204,1
1336,-1.628464,1.0364846,0.6655693,-0.03894266,-0.025045475,0.08483391,1
1337,-0.38850576,-0.36773205,-0.41858387,-0.024281893,0.053145275,0.09094256,1
1338,-0.89852214,-0.98570687,0.83369446,-0.058490347,-0.015882496,0.051847186,1
1339,-0.59843284,-0.28149295,1.1005402,0.001985312,-0.10140363,-0.0012980887,1
1340,1.701804,-0.9979348,0.07488823,0.017256944,-0.13927728,-0.027565295,1
1341,1.1648561,-0.24575579,-0.9376507,-0.010231993,0.12705997,-0.014737124,1
1342,1.3077285,-1.8989956,1.4558315,-0.019394971,-0.105068825,-0.0067958757,1
1343,0.86962986,-0.41113913,-0.7015228,0.09483683,0.02565634,-0.01656972,1
1344,-2.4770627,-1.3533103,-0.8213291,0.03191771,-0.020158553,-0.017180584,1
1345,-0.7665665,-2.372037,-0.12138271,-0.0022907446,-0.17348573,-0.03428481,1
1346,0.5450225,-2.2015684,-1.3223476,0.024587326,-0.12583824,0.007254025,1
1347,-0.22052419,-0.2243824,-1.9091268,-0.0071776668,-0.03176499,0.04024075,1
1348,0.28510702,-0.032849908,-0.5149355,-0.065209866,0.009773844,0.05917757,1
1349,-0.36477995,-0.75263965,-0.006586075,0.018478673,0.054367006,0.04085161,1
1350,-0.26799905,-0.71892405,0.17182064,-0.010842858,-0.018325957,-0.021456642,1
1351,0.79800427,-2.897769,-0.5247669,-0.056046885,-0.050701816,0.0066431593,1
1352,0.76148415,-3.2722623,-0.054715157,-0.024892759,-0.070249505,-0.0061850105,1
1353,0.7784623,-1.9260757,-0.72491837,0.001985312,-0.026267206,-0.0025198192,1
1354,-0.4103278,-1.5791084,-0.7977667,0.024587326,0.089186326,0.062842764,1
1355,-2.2513096,-0.78063375,-0.59372616,-0.010842858,-0.2003638,0.09705122,1
1356,0.14630604,0.72609425,0.5348921,-0.012064588,0.052534413,0.04268421,1
1357,-1.0709188,-0.29719815,0.18156242,0.014202617,-0.04153884,-0.08071057,1
1358,0.20485091,-1.1254336,-0.083042145,-0.02855795,0.061086524,-0.011682798,1
1359,-1.5810894,-0.6375134,0.77591896,0.00076358154,-0.02443461,0.11049025,1
1360,-2.230279,-0.8359734,0.39679337,-0.027947085,0.007330383,0.21311562,1
1361,-2.792801,-0.27316356,2.0024471,0.074067414,-0.064751714,0.1868484,1
1362,0.011655569,-0.15809092,-0.066967964,0.033750303,-0.07452556,0.11904237,1
1363,0.62809736,0.44010204,0.3445511,0.009315695,-0.014049901,0.035353824,1
1364,0.3214538,0.051660016,0.77804375,-0.024281893,-0.028099801,-0.03428481,1
1365,0.83610725,-2.0364637,0.18987942,-0.051159963,-0.20708331,-0.11247557,1
1366,2.0276046,0.20543319,-0.85387516,-0.064599,0.03176499,-0.09170614,1
1367,1.2021904,-0.49996188,0.16108322,-0.023060163,0.20280726,-0.0092393365,1
1368,0.6141052,0.8150452,1.3297758,0.028863383,-0.02565634,0.031688634,1
1369,-1.6206673,-0.044861384,0.563714,0.02031127,0.047036625,0.07261661,1
1370,0.41583645,-0.52546084,0.23229313,0.041691553,0.012217305,0.008475755,1
1371,1.3468143,-0.24551699,-0.08561325,-0.122020334,0.12461651,-0.0061850105,1
1372,1.3831241,0.030001879,-0.21373463,-0.0035124752,-0.021991149,-0.12835807,1
1373,1.5081501,-0.7283976,-1.5944934,0.0013744468,0.026267206,-0.16562083,1
1374,2.4656324,1.1205983,-0.83097076,-0.05177083,-0.047647487,-0.17172949,1
1375,2.9211383,1.4489026,-3.6840158,-0.031612277,0.07941248,-0.13324498,1
1376,-0.22984242,-0.24654001,0.16299534,-0.013286319,-0.062308256,-0.01779145,1
1377,-0.44739318,-0.15190879,1.1090364,-0.0071776668,-0.004886922,0.064064495,1
1378,-0.56222916,-0.65438116,0.14338875,0.05024367,0.03176499,0.07994699,1
1379,0.4115641,0.042383313,-0.8031988,-0.012064588,0.025045475,0.10865766,1
1380,0.46595332,-0.095154345,-0.14680672,-0.0346666,-0.17898351,0.06772968,1
1381,-0.6504388,0.4122701,0.99094296,-0.091477074,-0.21685717,0.0463494,1
1382,0.27608275,0.9717251,0.60907364,-0.031001411,-0.032375857,0.09277516,1
1383,0.033694804,-0.31645733,-0.2154541,0.02275473,0.08735373,0.10377073,1
1384,-0.47366485,-1.249366,-0.83833504,0.025809057,-0.122783914,0.08666651,1
1385,-0.8804009,-2.8645391,-0.47564697,0.012980887,0.017104227,0.054901514,1
1386,0.70215744,-0.95216656,0.7436676,-0.01450805,-0.08307768,0.0035888334,1
1387,0.43999004,-1.0625124,1.4083261,0.021533,0.073303826,0.039629884,1
1388,1.0945218,1.8745843,0.17689419,-0.00290161,-0.054367006,0.0622319,1
1389,0.8049816,1.7169311,0.42205715,-0.021227567,-0.0067195175,0.006032294,1
1390,0.9089587,0.055555254,0.55766964,-0.0035124752,0.048258353,0.03718642,1
1391,1.4945823,-0.39365062,0.02956009,-0.031612277,0.05681047,-0.0129045285,1
1392,1.0354649,0.9542857,0.3492403,-0.021838432,0.04886922,0.0005345071,1
1393,0.7366115,0.21815073,0.6446867,0.004428773,-0.09468412,-0.011682798,1
1394,-0.8681025,-0.5753273,0.32610416,-0.0016798794,-0.070249505,0.007254025,1
1395,0.28724444,-0.7521808,-0.24161911,-0.02367103,-0.15393804,0.034132097,1
1396,-0.017083287,-0.9111153,0.09132385,0.022143865,-0.048258353,0.04268421,1
1397,-0.26180148,1.0792468,-0.36830616,0.055741455,-0.05375614,0.01947133,1
1398,0.10718858,0.22550416,0.15582561,-0.040775254,0.0580322,0.061621033,1
1399,0.26969326,0.25649464,-0.26043892,0.016035212,0.061086524,0.061621033,1
1400,-1.0493588,-0.057889342,0.2477169,0.041691553,-0.069027774,0.07261661,1
1401,1.166327,0.41719687,0.26005077,-0.01817324,-0.056199603,0.07811439,1
1402,0.4214766,0.006705582,1.3165436,0.014202617,-0.051923547,0.065897085,1
1403,0.74109757,-0.68803275,1.1004572,-0.02855795,0.064751714,0.032910366,1
1404,0.003059864,-0.15773511,0.04430294,0.077121735,0.014049901,0.04268421,1
1405,0.11086357,0.13982368,-0.31711864,0.02031127,0.023823744,0.05551238,1
1406,-1.4066336,-0.8859638,0.61599255,0.047800206,0.00061086525,0.005421429,1
1407,-0.45237327,-0.23169965,0.6596689,-0.049938235,0.1020145,0.034742963,1
1408,0.42708433,-1.1626518,-0.8759527,0.093004234,0.09773844,-0.01779145,1
1409,0.02377677,-1.017384,0.26242256,0.033750303,0.07819075,-0.04344779,1
1410,0.35229635,0.16817701,0.12122536,-0.051159963,-0.04520403,-0.025732698,1
1411,-0.5021113,-0.59638023,-0.20443344,0.009315695,0.14538592,-0.01779145,1
1412,0.86293936,1.1610756,-0.19772148,0.013591751,-0.08735373,-0.1417971,1
1413,0.65656686,3.1134374,-0.59249973,-0.12385293,0.052534413,-0.070936725,1
1414,0.7382579,2.7755985,-0.23667431,-0.111635625,0.12156218,-0.06299548,1
1415,0.94025826,2.6351173,0.07362747,0.0050396384,-0.021380283,-0.13691017,1
1416,0.29781747,0.9250912,-0.034202576,-0.058490347,0.027488936,-0.06116288,1
1417,-0.06891489,-0.19098556,0.5391855,-0.012064588,-0.010995574,-0.025732698,1
1418,-0.5749512,0.52007544,-0.6424675,0.04718934,0.04886922,0.05795584,1
1419,-1.5283318,0.120087385,0.51450825,0.026419923,-0.037873644,0.01947133,1
1420,-0.016088963,0.5220692,1.3421898,-0.027947085,-0.06169739,0.010919216,1
1421,-0.2522025,0.39406157,1.4140444,-0.021227567,0.034208454,0.006032294,1
1422,-0.87330306,0.8280182,-0.2598772,-0.022449298,0.053145275,-0.007406741,1
1423,0.41100574,0.465259,0.03256035,0.016646078,0.02687807,0.012140946,1
1424,-0.835463,0.06466508,0.8254328,-0.007788532,0.053145275,0.0005345071,1
1425,0.12690246,0.62205625,-0.40666485,0.14553864,0.14294247,0.007254025,1
1426,-0.34778166,1.2425287,0.81452656,0.012370021,-1.1258247,0.04757113,1
1427,-0.8357254,-0.24015647,1.7399006,0.018478673,-0.06780604,0.0041996986,1
1428,1.3981141,0.96779203,-1.3053684,-0.043218717,0.15577064,0.010308351,1
1429,-0.06099105,0.59770936,-0.11052704,-0.038331795,0.05497787,0.03596469,1
1430,0.6327003,-0.9582927,1.1220846,0.019089539,0.013439035,-0.019624045,1
1431,0.14780664,-0.8298882,-1.2760372,0.0050396384,-0.017715093,0.034742963,1
1432,0.21284509,-0.8082768,-1.4270372,-0.1207986,0.19242255,-0.10392345,1
1433,-1.2131345,-1.3872218,0.8791647,-0.021227567,0.03604105,0.0035888334,1
1434,-0.43668008,-1.9583706,-1.8863845,-0.020005837,0.02076942,0.051236324,1
1435,1.0459647,-0.1511172,0.40569115,-0.02367103,0.06047566,0.0048105638,1
1436,0.34868884,-0.32196426,-0.9076328,0.07162395,-0.015882496,-0.02939789,1
1437,-0.12926054,0.39406145,-0.17870235,0.037415497,-0.007941248,-0.008628472,1
1438,0.58610845,-0.19526601,-2.0846567,-0.038331795,0.03726278,-0.022067508,1
1439,0.28875208,-0.77923656,1.2428427,-0.0071776668,-0.020158553,-0.053221636,1
1440,-0.13758135,-0.010386229,0.15574265,0.012980887,-0.054367006,-0.046502117,1
1441,-0.5673474,0.6228787,0.28381062,0.051465396,-0.119729586,-0.05749769,1
1442,-0.019729376,2.523957,-0.055692673,-0.03894266,-0.040317107,-0.051999904,1
1443,0.10356188,3.0101929,0.9191847,0.0025961774,-0.13500121,-0.17417295,1
1444,0.83599305,3.3893647,0.26784325,-0.012064588,-0.028099801,-0.08559749,1
1445,-1.1225808,1.6156934,-1.4966469,-0.0065668016,0.04642576,0.021914791,1
1446,-0.84406805,0.52169704,-0.052506447,-0.08903361,0.01282817,-0.2578615,1
1447,0.60480094,-1.1678542,-0.3381281,0.0154243475,-0.004276057,-0.04955644,1
1448,-0.12164903,-0.093634486,-0.27467537,-0.024281893,0.016493361,-0.0092393365,1
1449,-0.61973596,-0.67779946,1.4339094,0.034972034,0.0018325958,0.0066431593,1
1450,-0.7849238,0.12131238,-0.27330208,-0.020005837,0.051923547,0.012140946,1
1451,-0.19219148,-0.86224484,1.0449991,-0.007788532,0.004276057,0.008475755,1
1452,-0.84101474,-0.54194593,0.1637783,0.08323039,-0.05497787,0.0017562376,1
1453,0.3863448,2.0474577,0.5578251,-0.009010263,-0.009773844,0.018860465,1
1454,-0.057249904,2.5879822,0.20226097,-0.0022907446,0.021380283,0.0023671028,1
1455,0.83209145,2.6425023,1.7307196,0.024587326,0.06414085,0.046960264,1
1456,-1.6843994,1.875776,-0.26446438,-0.049938235,-0.12950343,0.44463354,1
1457,0.62552464,1.1231205,1.0072546,0.05879578,0.11484267,0.071394876,1
1458,-0.9642315,0.15897477,2.6895714,0.032528576,-0.044593163,0.06650795,1
1459,0.44084823,2.0926218,0.68493176,-0.033444874,-0.09773844,0.09949467,1
1460,-0.7102841,1.8605233,1.7447844,0.051465396,-0.09712757,-0.026343564,1
1461,-2.0775704,0.47456527,-0.7898197,0.066737026,-0.21380283,0.053068917,1
1462,-1.7709407,0.32360435,0.37954235,-0.03894266,-0.0061086523,0.13125966,1
1463,-1.0430828,-0.22923493,-0.13137531,-0.049938235,-0.18448131,-0.07887798,1
1464,-1.6164684,-0.013871908,0.20908642,0.19257528,0.08002335,0.18012889,1
1465,-2.3421397,1.060869,-2.070764,0.05757405,0.0012217305,0.15752688,1
1466,-0.9390771,-0.4994235,1.296217,0.029474247,-0.12339478,0.14347698,1
1467,0.3344388,-0.56099504,0.37895584,0.009315695,-0.040317107,0.048181996,1
1468,-0.40551174,-0.62893564,0.7753372,0.045356743,-0.013439035,-0.01656972,1
1469,2.1116695,-0.18945885,0.11900234,-0.040775254,-0.12705997,-0.041615196,1
1470,0.9835638,-1.0164614,-0.7654667,0.025198191,-0.111177474,-0.046502117,1
1471,-0.11665785,-1.339486,-0.23321724,-0.00045814895,0.009773844,0.00908662,1
1472,-0.78104174,0.3681436,0.5464592,-0.00045814895,0.06780604,0.05062546,1
1473,-0.4845345,0.5245966,-0.24862957,0.022143865,0.0,0.04268421,1
1474,-0.36135757,0.653365,1.4793892,-0.01695151,-0.017104227,0.051236324,1
1475,-0.17305136,0.594558,1.0828876,-0.065209866,-0.122783914,-0.025121834,1
1476,1.6964655,1.5538425,-0.74137306,-0.056046885,0.03970624,0.005421429,1
1477,1.737644,0.95342374,-0.4240322,-0.017562376,-0.004276057,-0.023289237,1
1478,-0.22283137,0.67771256,0.49447727,-0.02977968,-0.017715093,-0.0012980887,1
1479,1.8294368,-0.6129573,-0.19941044,-0.08231409,0.01282817,-0.030619621,1
1480,1.3608747,-0.39464924,-1.0411434,-0.071318515,0.04337143,-0.12713633,1
1481,2.2587337,-0.106212884,-1.1810837,-0.020005837,0.17715092,-0.054443367,1
1482,-0.7556101,-0.42481306,1.0796633,0.0038179078,0.07696902,-0.43989933,1
1483,-2.5224445,-1.554691,1.3561697,0.00870483,-0.0018325958,0.100716405,1
1484,-1.6675365,-0.9851871,0.25513458,0.078343466,0.054367006,0.0182496,1
1485,-1.0189577,0.3555774,-0.22696304,-0.0096211275,0.015882496,-0.06116288,1
1486,-0.82554615,0.62454057,0.9760771,-0.04444045,-0.12583824,0.05551238,1
1487,-0.0007266998,-0.7320622,0.73505497,-0.021227567,0.06169739,-0.02939789,1
1488,-0.124697685,1.3492811,0.23179913,0.016035212,0.014660766,-0.011682798,1
1489,1.5441127,-0.13220355,0.98183155,-0.011453724,-0.040317107,-0.015958855,1
1490,-0.62998724,-0.8365323,-1.6980171,0.09666943,-0.108123146,-0.062384613,1
1491,-0.29793346,-1.1543016,-2.4697137,0.11133019,-0.20525073,0.48006374,1
1492,0.4789641,-2.1047263,1.5465002,-0.060322944,0.27855456,0.11293371,1
1493,-1.3421266,-1.009614,0.17931366,0.018478673,-0.029321533,-0.05505423,1
1494,-0.33580267,0.5922353,-0.37343502,0.0013744468,-0.0030543262,0.07506007,1
1495,-1.280369,-0.7850879,-1.0810566,0.031306844,-0.16249016,0.058566704,1
1496,-0.60204923,-1.7551825,0.29998493,-0.079870634,0.059864793,0.09827295,1
1497,-1.9835314,-0.16687787,0.18285084,-0.034055736,0.051923547,0.1746311,1
1498,-3.7373357,-0.18634301,1.9010353,0.0025961774,0.1001819,0.2326633,1
1499,-3.1920638,0.4822656,0.545063,0.034972034,0.05009095,0.22044599,1
1500,0.5413372,0.0012341738,1.5542202,0.044135015,-0.06658431,0.13003793,1
1501,-1.5564988,0.18361433,-0.70813465,0.028863383,-0.008552114,-0.0129045285,1
1502,1.2524033,-0.77510464,0.46095467,0.019089539,0.02443461,-0.026343564,1
1503,0.11569905,-1.027419,0.2799492,-0.013897184,-0.028099801,0.0005345071,1
1504,-0.13417673,-1.8457432,0.13741016,0.022143865,-0.069027774,0.018860465,1
1505,-0.58816135,-2.580681,1.4610472,0.0013744468,0.053145275,0.0005345071,1
1506,-0.51196456,-1.4584947,0.36864662,-0.007788532,-0.010995574,0.005421429,1
1507,0.08054972,0.15750861,0.23618889,0.0050396384,0.009162978,-0.0019089539,1
1508,1.2344418,0.24361688,-0.76875114,0.0062613687,-0.015271631,0.0048105638,1
1509,1.0942656,0.11471915,0.52443886,0.013591751,0.07269296,0.038408153,1
1510,1.1046184,0.55082715,-0.033759117,0.056352317,-0.10140363,0.017027868,1
1511,-0.15958393,0.22506541,-0.029432297,0.03924809,-0.05681047,-0.036728274,1
1512,1.1647046,1.9358611,-0.39618015,-0.034055736,-0.007330383,-0.05138904,1
1513,-0.53488064,0.17315102,-0.34662533,0.042913284,0.0580322,-0.05505423,1
1514,1.0837841,0.77579236,-0.59417915,-0.0065668016,0.06047566,-0.035506543,1
1515,-0.84809554,0.77965057,-0.5707092,0.027030786,0.016493361,-0.007406741,1
1516,-1.0400504,0.008624114,0.7157278,-0.0346666,-0.004886922,0.01947133,1
1517,-1.3580031,-0.23484321,-0.33953285,0.023365596,0.19486602,0.014584408,1
1518,-0.77663845,-0.9758723,0.8913803,-0.0071776668,0.15943582,0.016417004,1
1519,-1.1825325,-0.8154366,-1.683106,0.03191771,-0.08307768,0.0011453723,1
1520,0.24028659,-0.8117553,0.40900135,0.016035212,-0.15332718,-0.0055741454,1
1521,0.5551597,1.1532183,-0.97796917,0.025198191,-0.013439035,0.007254025,1
1522,0.804168,-0.66457045,-0.49571514,0.014813482,0.08246681,0.007254025,1
1523,0.2904513,-0.49711877,0.33969212,0.012980887,0.0,0.0011453723,1
1524,1.0429595,0.5715747,-0.47371292,0.00015271631,-0.02687807,-0.008628472,1
1525,-0.2013303,0.36313686,0.19981289,0.011759156,0.01160644,-0.0061850105,1
1526,0.892622,0.3142636,0.25476742,-0.0053450707,-0.020158553,0.0048105638,1
1527,-1.7470468,0.27055216,-1.4024725,-0.02611449,-0.1142318,-0.0067958757,1
1528,0.08277941,-0.3092772,-0.6085501,-0.022449298,0.016493361,0.04512767,1
1529,0.032948017,-1.9417748,-2.054782,0.011148291,0.22052236,0.0023671028,1
1530,0.9271461,-1.4232775,-0.5534153,0.051465396,-0.027488936,-0.05261077,1
1531,-1.0612316,-3.7307277,-1.1164789,0.00015271631,0.009773844,0.021303926,1
1532,-0.26792884,-1.0625626,0.5395365,-0.04016439,0.029932396,0.044516806,1
1533,-0.98212576,0.8234599,5.1717386,0.018478673,-0.105068825,0.0048105638,1
1534,-0.9251336,-0.49598336,0.57797146,0.006872234,0.1423316,0.028023442,1
1535,-0.044282436,0.2328018,-0.084692,0.08506299,0.1826487,0.0023671028,1
1536,0.3932475,0.19071262,0.030761719,-0.04627304,0.012217305,0.056123246,1
1537,1.1598713,1.2864066,-0.07139683,-0.008399397,-0.03481932,0.050014593,1
1538,-0.8099829,0.09353352,-1.1641502,0.059406646,-0.12767084,0.012140946,1
1539,-0.11310196,0.74075013,-0.9725971,-0.019394971,-0.015882496,0.028634308,1
1540,-1.6604784,0.82557046,0.36166954,-0.04932737,0.030543262,0.061621033,1
1541,-0.51118076,0.784887,1.148324,0.037415497,0.030543262,0.071394876,1
1542,0.10674596,1.6657662,0.38502502,-0.009010263,-0.16920967,0.05917757,1
1543,0.32270765,-0.554566,0.3666811,0.0062613687,-0.012217305,0.046960264,1
1544,-0.2136606,-1.0284956,0.047073364,0.04718934,0.08674286,0.012140946,1
1545,0.4403168,1.4049027,-0.25065517,0.03313944,0.08674286,-0.0012980887,1
1546,1.2661338,-0.21489407,-0.24516582,0.0777326,0.020158553,-0.067882404,1
1547,1.2596337,0.14523873,0.9581537,-0.05421429,-0.1740966,-0.022678372,1
1548,0.98902047,0.33771124,-0.96047306,-0.012064588,0.06536258,-0.0031306844,1
1549,0.02731204,-1.1950632,0.44221306,-0.100029185,-0.10934488,0.005421429,1
1550,-0.4749391,-1.2511419,1.619669,-0.008399397,0.18875736,-0.076434515,1
1551,0.31738687,-2.303408,1.1568623,0.011148291,0.069027774,0.05551238,1
1552,-1.6546915,-3.2661304,-0.22456646,-0.16722436,0.092240654,0.31635183,1
1553,-0.42974627,-1.8931892,0.9440632,0.02275473,0.051923547,0.021914791,1
1554,0.56358194,0.8718117,-0.8176098,-0.072540246,-0.16310102,-0.047112983,1
1555,1.15641,0.62687135,-0.6366234,-0.09392053,0.031154128,0.007254025,1
1556,-0.61852276,0.90822554,1.6835747,0.012370021,0.1863139,0.048181996,1
1557,-0.7297338,-0.7817656,-0.3481493,0.05024367,0.16126843,0.07261661,1
1558,-0.88331246,1.4584394,0.97840977,-0.02855795,0.007330383,0.11720977,1
1559,-0.5287088,-0.9409322,0.22288513,0.00992656,0.010995574,0.07994699,1
1560,-1.3360186,0.06496136,0.013532639,-0.029168816,-0.009162978,0.13003793,1
1561,-0.20589435,0.63660365,0.5887852,0.10277808,0.14782938,0.09827295,1
1562,0.14685583,-0.7340609,-0.86395645,0.06490443,-0.061086524,-0.014737124,1
1563,0.36994755,-0.30956697,0.40944958,0.045356743,-0.0421497,-0.04222606,1
1564,0.6971495,0.6586728,-1.1249084,0.027030786,-0.039095376,-0.2523637,1
1565,1.1454903,0.21933681,0.9478121,0.001985312,-0.0061086523,-0.00496328,1
1566,0.29991055,1.5577639,-0.68495655,-0.1049161,-0.15210545,0.06834055,1
